DeviceTag: Xsens XIII,FirmwareVersion: 3.0.0,AppVersion: 2023.6.0,SyncStatus: Unknown (Synced/Un-synced),OutputRate: 60,FilterProfile: Unknown,Measurement Mode: Sensor fusion Mode - Extended (Quaternion),StartTime: 2026-07-17 11:13:52.707,© Movella Technologies B.V. 2005-2026
SampleTimeFine,Quat_W,Quat_X,Quat_Y,Quat_Z,FreeAcc_X,FreeAcc_Y,FreeAcc_Z,Status
14430496,0.3978,0.7195,-0.1815,0.5396,-0.0293,-0.0163,0.0014,0
14430663,0.3976,0.7197,-0.1813,0.5395,-0.0519,-0.0753,0.0133,0
14430830,0.3982,0.7198,-0.1809,0.5391,-0.0323,-0.0792,0.0167,0
14430996,0.3989,0.7197,-0.1805,0.5388,-0.0450,-0.0388,0.0251,0
14431163,0.3995,0.7196,-0.1803,0.5385,-0.0406,-0.0494,0.0066,0
14431330,0.3999,0.7196,-0.1801,0.5382,-0.0341,-0.0100,-0.0544,0
14431496,0.4001,0.7197,-0.1800,0.5380,-0.0505,0.0130,-0.0253,0
14431663,0.4001,0.7199,-0.1800,0.5378,-0.0452,0.0023,-0.0577,0
14431830,0.4001,0.7200,-0.1800,0.5376,-0.0423,0.0009,-0.0434,0
14431996,0.4000,0.7202,-0.1799,0.5376,-0.0370,-0.0229,-0.0282,0
14432163,0.4000,0.7202,-0.1802,0.5374,-0.0008,-0.0409,-0.0163,0
14432330,0.4001,0.7202,-0.1804,0.5373,-0.0168,-0.0326,-0.0039,0
14432496,0.4003,0.7202,-0.1808,0.5371,0.0207,-0.0588,0.0148,0
14432663,0.4003,0.7202,-0.1809,0.5370,0.0176,-0.0564,-0.0012,0
14432830,0.4002,0.7202,-0.1809,0.5371,0.0002,-0.0281,-0.0120,0
14432996,0.4002,0.7202,-0.1811,0.5370,-0.0203,-0.0309,-0.0170,0
14433163,0.4002,0.7202,-0.1813,0.5369,-0.0277,-0.0396,-0.0139,0
14433330,0.4002,0.7202,-0.1815,0.5369,-0.0219,-0.0728,-0.0086,0
14433496,0.4003,0.7201,-0.1818,0.5368,-0.0360,-0.0873,-0.0159,0
14433663,0.4004,0.7200,-0.1821,0.5368,-0.0102,-0.0487,-0.0106,0
14433830,0.4005,0.7199,-0.1824,0.5367,0.0431,-0.0314,-0.0128,0
14433996,0.4005,0.7199,-0.1825,0.5366,0.0285,-0.0906,-0.0279,0
14434163,0.4004,0.7200,-0.1826,0.5366,0.0193,-0.0982,-0.0262,0
14434330,0.4004,0.7200,-0.1828,0.5366,0.0422,-0.0421,-0.0101,0
14434496,0.4003,0.7200,-0.1830,0.5366,0.0363,-0.0141,-0.0078,0
14434663,0.4001,0.7200,-0.1832,0.5366,-0.0196,-0.0277,0.0145,0
14434830,0.3999,0.7201,-0.1834,0.5365,-0.0674,-0.0901,0.0294,0
14434996,0.3997,0.7202,-0.1836,0.5365,-0.0921,-0.1586,0.0650,0
14435163,0.3998,0.7201,-0.1839,0.5364,-0.1224,-0.1579,0.0734,0
14435330,0.4000,0.7199,-0.1843,0.5364,-0.0761,-0.1042,0.0375,0
14435496,0.4002,0.7198,-0.1846,0.5364,-0.0155,-0.0452,-0.0457,0
14435663,0.4002,0.7198,-0.1848,0.5363,0.0115,-0.0526,-0.0931,0
14435830,0.4000,0.7199,-0.1849,0.5363,0.0219,-0.0381,-0.0871,0
14435996,0.3998,0.7200,-0.1850,0.5363,-0.0510,-0.1071,-0.0206,0
14436163,0.3997,0.7200,-0.1852,0.5363,-0.1029,-0.1472,0.0176,0
14436330,0.3997,0.7199,-0.1854,0.5362,-0.0590,-0.1255,0.0176,0
14436496,0.3998,0.7198,-0.1857,0.5362,-0.0404,-0.1260,0.0156,0
14436663,0.3998,0.7198,-0.1859,0.5362,-0.0592,-0.1072,0.0134,0
14436830,0.3998,0.7198,-0.1860,0.5361,-0.0919,-0.1439,0.0854,0
14436996,0.3998,0.7198,-0.1859,0.5361,-0.0725,-0.1439,0.0979,0
14437163,0.4000,0.7197,-0.1860,0.5362,-0.0962,-0.1322,0.0908,0
14437330,0.4002,0.7195,-0.1860,0.5362,-0.0872,-0.0679,0.0094,0
14437496,0.4003,0.7195,-0.1860,0.5362,-0.0768,0.0064,-0.0006,0
14437663,0.4003,0.7195,-0.1860,0.5362,-0.1108,-0.0194,0.0773,0
14437830,0.4004,0.7195,-0.1861,0.5361,-0.1572,-0.1314,0.1136,0
14437996,0.4006,0.7194,-0.1863,0.5360,-0.1280,-0.1530,0.0310,0
14438163,0.4009,0.7192,-0.1867,0.5359,-0.0353,-0.1319,-0.0684,0
14438330,0.4011,0.7190,-0.1871,0.5359,-0.0094,-0.0882,-0.1296,0
14438496,0.4012,0.7188,-0.1874,0.5360,0.0037,-0.0748,-0.1069,0
14438663,0.4012,0.7185,-0.1877,0.5362,-0.0340,-0.0729,-0.0605,0
14438830,0.4012,0.7184,-0.1880,0.5363,-0.0939,-0.1295,-0.0297,0
14438996,0.4010,0.7184,-0.1884,0.5363,-0.1177,-0.1044,-0.1155,0
14439163,0.4007,0.7185,-0.1887,0.5362,-0.1181,-0.0914,-0.1568,0
14439330,0.4005,0.7186,-0.1891,0.5361,-0.0829,-0.1622,-0.0918,0
14439496,0.4005,0.7183,-0.1896,0.5363,-0.0885,-0.1828,0.0199,0
14439663,0.4008,0.7179,-0.1901,0.5365,-0.0926,-0.1856,0.0513,0
14439830,0.4010,0.7176,-0.1907,0.5366,-0.0593,-0.0956,-0.0284,0
14439996,0.4009,0.7176,-0.1912,0.5365,0.0450,0.0086,-0.0886,0
14440163,0.4003,0.7178,-0.1914,0.5365,0.0337,-0.0494,-0.0577,0
14440330,0.3995,0.7182,-0.1911,0.5367,-0.1172,-0.1759,0.0685,0
14440496,0.3989,0.7183,-0.1909,0.5371,-0.1875,-0.3619,0.1239,0
14440663,0.3990,0.7179,-0.1912,0.5374,-0.2143,-0.3557,0.1068,0
14440830,0.3992,0.7177,-0.1916,0.5374,-0.1827,0.0296,-0.0381,0
14440996,0.3988,0.7180,-0.1917,0.5374,-0.2929,0.0588,-0.1338,0
14441163,0.3985,0.7184,-0.1917,0.5370,-0.5307,-0.4767,0.1298,0
14441330,0.3989,0.7186,-0.1922,0.5362,-0.6156,-0.5889,0.1892,0
14441496,0.3999,0.7185,-0.1930,0.5353,-0.3897,-0.4146,0.2724,0
14441663,0.4012,0.7179,-0.1941,0.5348,-0.0164,-0.2501,0.1319,0
14441830,0.4028,0.7167,-0.1955,0.5346,0.2155,-0.2434,-0.0536,0
14441996,0.4044,0.7154,-0.1969,0.5347,0.3616,-0.1369,-0.1456,0
14442163,0.4052,0.7146,-0.1976,0.5349,0.4330,0.0626,-0.2568,0
14442330,0.4051,0.7145,-0.1977,0.5350,0.3360,0.0779,-0.2476,0
14442496,0.4045,0.7148,-0.1977,0.5351,0.2107,-0.2163,-0.0345,0
14442663,0.4040,0.7149,-0.1978,0.5352,0.0474,-0.3631,0.0513,0
14442830,0.4038,0.7147,-0.1980,0.5356,-0.0488,-0.3999,0.0409,0
14442996,0.4038,0.7143,-0.1982,0.5361,-0.2265,-0.3242,-0.0889,0
14443163,0.4040,0.7140,-0.1986,0.5363,-0.3386,-0.3820,-0.0827,0
14443330,0.4041,0.7137,-0.1990,0.5363,-0.1542,-0.2438,-0.0602,0
14443496,0.4038,0.7137,-0.1994,0.5365,0.0273,-0.0952,0.0590,0
14443663,0.4032,0.7138,-0.1996,0.5367,-0.2065,-0.3241,0.3529,0
14443830,0.4033,0.7133,-0.2001,0.5371,-0.4456,-0.8387,0.6693,0
14443996,0.4045,0.7121,-0.2011,0.5375,-0.3460,-0.5429,0.3003,0
14444163,0.4058,0.7109,-0.2022,0.5377,-0.0196,-0.1321,-0.1361,0
14444330,0.4067,0.7098,-0.2030,0.5381,0.2466,-0.1266,-0.2052,0
14444496,0.4072,0.7089,-0.2037,0.5387,0.2271,-0.2193,-0.1255,0
14444663,0.4075,0.7080,-0.2042,0.5394,0.1066,-0.2579,-0.1259,0
14444830,0.4077,0.7071,-0.2048,0.5402,0.1006,-0.1913,-0.2822,0
14444996,0.4078,0.7062,-0.2056,0.5411,0.1813,-0.2052,-0.4322,0
14445163,0.4078,0.7052,-0.2065,0.5420,0.2445,-0.2195,-0.4290,0
14445330,0.4074,0.7043,-0.2073,0.5431,0.2030,-0.1044,-0.2758,0
14445496,0.4067,0.7036,-0.2079,0.5443,0.0034,-0.2540,-0.1561,0
14445663,0.4061,0.7029,-0.2085,0.5455,-0.0483,-0.3858,-0.0885,0
14445830,0.4054,0.7021,-0.2091,0.5467,-0.0168,-0.2541,-0.0023,0
14445997,0.4049,0.7014,-0.2097,0.5479,-0.0978,-0.2349,0.0783,0
14446163,0.4045,0.7006,-0.2105,0.5489,-0.2246,-0.2449,0.0718,0
14446330,0.4039,0.7001,-0.2111,0.5497,-0.0905,-0.1881,0.1108,0
14446497,0.4030,0.6999,-0.2114,0.5505,-0.0355,-0.2312,0.0760,0
14446663,0.4020,0.6999,-0.2116,0.5511,-0.2372,-0.4283,0.1866,0
14446830,0.4015,0.6996,-0.2121,0.5517,-0.4195,-0.6479,0.1808,0
14446997,0.4016,0.6990,-0.2128,0.5521,-0.4089,-0.4672,0.1208,0
14447163,0.4018,0.6984,-0.2136,0.5525,-0.1783,-0.2622,0.0724,0
14447330,0.4023,0.6974,-0.2145,0.5530,-0.1008,-0.1983,0.0194,0
14447497,0.4027,0.6964,-0.2155,0.5535,0.0327,-0.1748,-0.0724,0
14447663,0.4029,0.6955,-0.2166,0.5541,0.1927,-0.1983,-0.2439,0
14447830,0.4028,0.6947,-0.2172,0.5549,0.2491,-0.1567,-0.2899,0
14447997,0.4022,0.6943,-0.2175,0.5557,0.1255,-0.1864,-0.2083,0
14448163,0.4014,0.6940,-0.2177,0.5566,-0.1053,-0.2419,-0.1099,0
14448330,0.4008,0.6935,-0.2181,0.5575,-0.2222,-0.2980,-0.0734,0
14448497,0.4005,0.6928,-0.2189,0.5583,-0.1590,-0.3337,-0.0219,0
14448663,0.4003,0.6920,-0.2196,0.5591,-0.0759,-0.3374,0.0182,0
14448830,0.4001,0.6913,-0.2203,0.5599,0.0214,-0.2336,0.0165,0
14448997,0.3995,0.6909,-0.2208,0.5606,-0.0736,-0.1894,-0.0116,0
14449163,0.3989,0.6906,-0.2213,0.5612,-0.2018,-0.2795,0.0220,0
14449330,0.3985,0.6903,-0.2219,0.5616,-0.2753,-0.4292,0.0639,0
14449497,0.3984,0.6899,-0.2226,0.5620,-0.2087,-0.4328,0.0786,0
14449663,0.3982,0.6894,-0.2231,0.5625,-0.0587,-0.4073,0.1068,0
14449830,0.3982,0.6889,-0.2235,0.5630,-0.1022,-0.3426,0.0703,0
14449997,0.3981,0.6884,-0.2239,0.5635,-0.1657,-0.3060,0.0023,0
14450163,0.3980,0.6880,-0.2241,0.5639,-0.1065,-0.2662,-0.1314,0
14450330,0.3977,0.6879,-0.2242,0.5642,-0.0135,-0.1879,-0.1552,0
14450497,0.3972,0.6879,-0.2243,0.5645,-0.1969,-0.2968,-0.0960,0
14450663,0.3969,0.6879,-0.2243,0.5648,-0.2980,-0.4873,0.0524,0
14450830,0.3969,0.6877,-0.2244,0.5650,-0.2477,-0.5263,0.0934,0
14450997,0.3971,0.6874,-0.2245,0.5651,-0.1837,-0.4378,0.0219,0
14451163,0.3974,0.6870,-0.2248,0.5653,-0.1650,-0.2636,-0.0221,0
14451330,0.3978,0.6865,-0.2252,0.5655,-0.1261,-0.2121,0.0388,0
14451497,0.3981,0.6861,-0.2257,0.5655,-0.0437,-0.2222,-0.0057,0
14451663,0.3982,0.6860,-0.2260,0.5655,-0.0875,-0.2281,-0.0796,0
14451830,0.3980,0.6861,-0.2263,0.5654,-0.1851,-0.3360,0.0312,0
14451997,0.3981,0.6859,-0.2267,0.5653,-0.1977,-0.5225,0.0878,0
14452163,0.3984,0.6857,-0.2271,0.5653,-0.1435,-0.4812,0.1072,0
14452330,0.3988,0.6854,-0.2274,0.5653,-0.0787,-0.3451,0.0402,0
14452497,0.3991,0.6851,-0.2278,0.5652,-0.1079,-0.2486,-0.0035,0
14452663,0.3995,0.6849,-0.2282,0.5650,-0.2246,-0.2610,-0.0387,0
14452830,0.3999,0.6847,-0.2287,0.5648,-0.1040,-0.3106,-0.0313,0
14452997,0.4001,0.6846,-0.2291,0.5646,-0.0468,-0.3767,-0.0413,0
14453163,0.4004,0.6843,-0.2294,0.5646,-0.0546,-0.4048,0.0740,0
14453330,0.4007,0.6841,-0.2297,0.5646,-0.0694,-0.4260,0.0174,0
14453497,0.4009,0.6840,-0.2297,0.5645,-0.1146,-0.3497,-0.0765,0
14453663,0.4010,0.6839,-0.2298,0.5645,-0.2038,-0.3161,-0.0983,0
14453830,0.4012,0.6838,-0.2299,0.5644,-0.1799,-0.2832,-0.1090,0
14453997,0.4015,0.6836,-0.2302,0.5644,-0.1628,-0.2347,-0.1076,0
14454163,0.4019,0.6832,-0.2307,0.5644,-0.1419,-0.2951,-0.0152,0
14454330,0.4024,0.6826,-0.2316,0.5643,-0.0398,-0.3000,0.0399,0
14454497,0.4029,0.6821,-0.2323,0.5643,0.0135,-0.2521,-0.0298,0
14454663,0.4029,0.6819,-0.2329,0.5643,-0.0416,-0.3240,-0.0771,0
14454830,0.4029,0.6819,-0.2334,0.5641,-0.0585,-0.4221,0.0349,0
14454997,0.4029,0.6818,-0.2337,0.5641,-0.0870,-0.5642,0.1091,0
14455163,0.4031,0.6815,-0.2339,0.5642,-0.0946,-0.4965,0.0895,0
14455330,0.4035,0.6811,-0.2342,0.5644,-0.0694,-0.3415,0.0468,0
14455497,0.4039,0.6805,-0.2347,0.5645,-0.0607,-0.2571,0.0002,0
14455663,0.4042,0.6800,-0.2353,0.5647,-0.0340,-0.2929,-0.1328,0
14455830,0.4042,0.6797,-0.2356,0.5649,0.0309,-0.3856,-0.1471,0
14455997,0.4040,0.6794,-0.2357,0.5653,0.0445,-0.4280,-0.1591,0
14456163,0.4037,0.6793,-0.2357,0.5658,-0.0499,-0.3755,-0.1237,0
14456330,0.4034,0.6790,-0.2358,0.5662,-0.1260,-0.2961,-0.0360,0
14456497,0.4040,0.6783,-0.2368,0.5663,-0.1564,-0.2249,0.0459,0
14456663,0.4049,0.6772,-0.2380,0.5665,-0.1448,-0.3081,-0.0250,0
14456830,0.4051,0.6766,-0.2385,0.5668,-0.1531,-0.3904,-0.1162,0
14456997,0.4048,0.6766,-0.2385,0.5670,-0.2089,-0.4154,-0.0236,0
14457163,0.4046,0.6765,-0.2388,0.5671,-0.4138,-0.4097,0.0360,0
14457330,0.4045,0.6765,-0.2389,0.5671,-0.3129,-0.4899,0.1890,0
14457497,0.4045,0.6764,-0.2390,0.5672,-0.1676,-0.5429,0.1060,0
14457663,0.4046,0.6761,-0.2393,0.5674,-0.1897,-0.4384,0.0047,0
14457830,0.4047,0.6758,-0.2396,0.5675,-0.2211,-0.2943,-0.0787,0
14457997,0.4049,0.6753,-0.2402,0.5677,-0.2159,-0.2829,-0.0888,0
14458163,0.4056,0.6746,-0.2412,0.5677,-0.0801,-0.2938,-0.0072,0
14458330,0.4061,0.6737,-0.2422,0.5679,-0.0664,-0.4109,0.0225,0
14458497,0.4066,0.6730,-0.2430,0.5680,-0.0661,-0.4546,-0.0043,0
14458663,0.4070,0.6724,-0.2438,0.5682,-0.0571,-0.4291,-0.1016,0
14458830,0.4073,0.6718,-0.2444,0.5684,-0.0701,-0.3433,-0.0392,0
14458997,0.4075,0.6714,-0.2449,0.5685,-0.0883,-0.3589,-0.0085,0
14459163,0.4076,0.6710,-0.2454,0.5686,-0.1171,-0.4010,-0.0289,0
14459330,0.4076,0.6707,-0.2459,0.5687,-0.1304,-0.4703,-0.0368,0
14459497,0.4075,0.6705,-0.2466,0.5688,-0.1176,-0.4344,0.0149,0
14459663,0.4074,0.6703,-0.2471,0.5689,-0.1360,-0.3961,0.0520,0
14459830,0.4075,0.6701,-0.2476,0.5689,-0.1310,-0.5033,0.0700,0
14459997,0.4077,0.6696,-0.2481,0.5691,-0.1273,-0.4870,-0.0420,0
14460163,0.4081,0.6690,-0.2487,0.5692,-0.1292,-0.4004,-0.0870,0
14460330,0.4084,0.6684,-0.2493,0.5695,-0.0160,-0.3102,-0.0403,0
14460497,0.4087,0.6678,-0.2498,0.5698,0.0079,-0.2979,0.0029,0
14460663,0.4088,0.6673,-0.2503,0.5701,-0.0802,-0.3479,-0.0346,0
14460830,0.4089,0.6668,-0.2508,0.5703,-0.1273,-0.3805,-0.0200,0
14460997,0.4090,0.6663,-0.2514,0.5706,-0.1537,-0.3814,0.0081,0
14461163,0.4091,0.6657,-0.2519,0.5709,-0.2059,-0.4220,0.1219,0
14461330,0.4093,0.6651,-0.2523,0.5714,-0.1878,-0.5130,0.1465,0
14461497,0.4097,0.6642,-0.2528,0.5719,-0.2336,-0.4579,0.0212,0
14461663,0.4104,0.6633,-0.2535,0.5721,-0.3107,-0.3275,-0.0997,0
14461830,0.4113,0.6622,-0.2544,0.5724,-0.2639,-0.1985,-0.2259,0
14461997,0.4127,0.6609,-0.2560,0.5722,-0.1678,-0.2057,-0.0472,0
14462163,0.4141,0.6595,-0.2575,0.5721,-0.1566,-0.4682,0.0921,0
14462330,0.4154,0.6580,-0.2587,0.5723,-0.2555,-0.5736,0.0278,0
14462497,0.4164,0.6569,-0.2596,0.5725,-0.2107,-0.5054,-0.1292,0
14462664,0.4170,0.6561,-0.2603,0.5726,-0.2006,-0.3642,-0.1195,0
14462830,0.4174,0.6557,-0.2608,0.5726,-0.2146,-0.3224,0.0448,0
14462997,0.4177,0.6554,-0.2612,0.5725,-0.2024,-0.4718,0.1392,0
14463164,0.4183,0.6548,-0.2618,0.5725,-0.1648,-0.5733,0.1671,0
14463330,0.4190,0.6540,-0.2624,0.5726,-0.1902,-0.4426,0.0980,0
14463497,0.4196,0.6533,-0.2631,0.5726,-0.2112,-0.2906,0.0085,0
14463664,0.4201,0.6529,-0.2637,0.5725,-0.2694,-0.2574,-0.0330,0
14463830,0.4206,0.6526,-0.2642,0.5723,-0.2481,-0.3478,0.0392,0
14463997,0.4212,0.6520,-0.2649,0.5721,-0.1790,-0.3807,0.0841,0
14464164,0.4221,0.6513,-0.2657,0.5719,-0.2148,-0.3565,0.0083,0
14464330,0.4231,0.6505,-0.2666,0.5716,-0.2149,-0.3455,-0.0626,0
14464497,0.4240,0.6497,-0.2675,0.5714,-0.1071,-0.3726,-0.1188,0
14464664,0.4247,0.6489,-0.2684,0.5714,0.0068,-0.3540,-0.1476,0
14464830,0.4251,0.6484,-0.2691,0.5714,-0.0972,-0.4005,-0.0067,0
14464997,0.4256,0.6479,-0.2696,0.5713,-0.1348,-0.4019,-0.0221,0
14465164,0.4264,0.6472,-0.2705,0.5711,-0.1896,-0.3948,0.0268,0
14465330,0.4276,0.6462,-0.2713,0.5710,-0.0750,-0.2972,0.0284,0
14465497,0.4285,0.6454,-0.2723,0.5707,-0.1432,-0.2376,-0.1398,0
14465664,0.4290,0.6449,-0.2733,0.5704,-0.1536,-0.2893,-0.0681,0
14465830,0.4294,0.6446,-0.2741,0.5702,-0.0288,-0.3891,-0.0113,0
14465997,0.4297,0.6441,-0.2747,0.5700,-0.0961,-0.4617,0.0306,0
14466164,0.4302,0.6436,-0.2752,0.5700,-0.2260,-0.5103,0.0688,0
14466330,0.4309,0.6430,-0.2755,0.5701,-0.3112,-0.5063,0.0447,0
14466497,0.4319,0.6423,-0.2759,0.5699,-0.2707,-0.4712,0.1319,0
14466664,0.4331,0.6413,-0.2762,0.5700,-0.0463,-0.4138,0.1269,0
14466830,0.4345,0.6400,-0.2763,0.5703,0.0286,-0.3155,0.1061,0
14466997,0.4359,0.6386,-0.2758,0.5711,-0.0862,-0.3735,0.1214,0
14467164,0.4378,0.6366,-0.2748,0.5724,-0.0997,-0.5687,0.1242,0
14467330,0.4392,0.6352,-0.2734,0.5735,-0.0697,-0.6703,0.0373,0
14467497,0.4403,0.6344,-0.2718,0.5743,-0.0943,-0.6062,0.1524,0
14467664,0.4415,0.6337,-0.2704,0.5747,-0.2715,-0.5263,0.1752,0
14467830,0.4432,0.6327,-0.2695,0.5751,-0.5320,-0.4958,0.1834,0
14467997,0.4453,0.6311,-0.2691,0.5753,-0.5750,-0.3789,0.0591,0
14468164,0.4475,0.6295,-0.2693,0.5753,-0.3427,-0.2034,-0.1966,0
14468330,0.4497,0.6278,-0.2699,0.5751,-0.2406,-0.0646,-0.4534,0
14468497,0.4514,0.6266,-0.2707,0.5748,-0.2279,-0.1707,-0.4106,0
14468664,0.4532,0.6252,-0.2715,0.5744,-0.2128,-0.2745,-0.2244,0
14468830,0.4553,0.6236,-0.2724,0.5742,-0.0376,-0.3235,0.0034,0
14468997,0.4573,0.6219,-0.2733,0.5740,0.2361,-0.1654,-0.0735,0
14469164,0.4589,0.6203,-0.2746,0.5737,0.2073,-0.0779,-0.2266,0
14469330,0.4601,0.6192,-0.2759,0.5734,-0.0141,-0.0976,-0.2169,0
14469497,0.4610,0.6186,-0.2771,0.5727,-0.1595,-0.1441,-0.2183,0
14469664,0.4614,0.6187,-0.2781,0.5718,-0.3080,-0.3811,-0.1055,0
14469830,0.4619,0.6187,-0.2792,0.5709,-0.3665,-0.6146,0.1590,0
14469997,0.4628,0.6181,-0.2801,0.5703,-0.2771,-0.6963,0.3751,0
14470164,0.4641,0.6170,-0.2809,0.5701,0.0244,-0.5330,0.3651,0
14470330,0.4655,0.6158,-0.2821,0.5697,-0.0433,-0.3550,0.0778,0
14470497,0.4665,0.6150,-0.2830,0.5693,-0.0178,-0.4441,0.0531,0
14470664,0.4673,0.6144,-0.2832,0.5692,0.1740,-0.5428,0.0790,0
14470830,0.4684,0.6134,-0.2831,0.5694,0.2080,-0.4000,0.0522,0
14470997,0.4694,0.6124,-0.2832,0.5696,-0.0804,-0.2229,0.0412,0
14471164,0.4701,0.6118,-0.2833,0.5696,-0.2674,-0.2411,-0.0655,0
14471330,0.4708,0.6115,-0.2834,0.5694,-0.2985,-0.3370,-0.2031,0
14471497,0.4715,0.6109,-0.2837,0.5692,-0.2541,-0.3231,-0.1095,0
14471664,0.4725,0.6101,-0.2841,0.5690,-0.1340,-0.2059,-0.0947,0
14471830,0.4733,0.6094,-0.2847,0.5689,-0.0301,-0.1607,-0.2156,0
14471997,0.4736,0.6089,-0.2854,0.5687,-0.0241,-0.2023,-0.2050,0
14472164,0.4738,0.6086,-0.2861,0.5686,-0.0021,-0.2588,-0.0852,0
14472330,0.4741,0.6081,-0.2869,0.5685,-0.0544,-0.2783,-0.0546,0
14472497,0.4744,0.6077,-0.2878,0.5682,-0.2276,-0.3115,-0.0689,0
14472664,0.4745,0.6075,-0.2884,0.5679,-0.2702,-0.3722,-0.0841,0
14472830,0.4750,0.6070,-0.2891,0.5678,-0.1876,-0.3828,-0.0240,0
14472997,0.4759,0.6060,-0.2896,0.5678,-0.1915,-0.5010,0.1988,0
14473164,0.4776,0.6042,-0.2902,0.5680,-0.2249,-0.3787,0.1989,0
14473330,0.4791,0.6026,-0.2905,0.5683,-0.1802,-0.5902,0.1414,0
14473497,0.4811,0.6005,-0.2914,0.5684,-0.2204,-0.7526,0.1985,0
14473664,0.4832,0.5982,-0.2922,0.5686,-0.3025,-0.4129,0.0015,0
14473830,0.4848,0.5964,-0.2926,0.5688,-0.0773,0.1148,-0.2541,0
14473997,0.4855,0.5957,-0.2928,0.5690,-0.0362,0.1352,-0.1901,0
14474164,0.4858,0.5953,-0.2928,0.5691,-0.0797,-0.1549,0.0755,0
14474330,0.4864,0.5946,-0.2931,0.5691,-0.1580,-0.3386,0.0946,0
14474497,0.4873,0.5938,-0.2936,0.5690,-0.1456,-0.4059,-0.0953,0
14474664,0.4880,0.5932,-0.2941,0.5688,-0.2200,-0.3289,-0.1919,0
14474830,0.4884,0.5928,-0.2946,0.5686,-0.2597,-0.2941,-0.2007,0
14474997,0.4888,0.5924,-0.2952,0.5683,-0.1855,-0.1445,-0.0913,0
14475164,0.4890,0.5923,-0.2958,0.5679,-0.2027,-0.1308,-0.1033,0
14475330,0.4889,0.5927,-0.2963,0.5673,-0.2481,-0.3161,-0.1430,0
14475497,0.4889,0.5930,-0.2967,0.5668,-0.1719,-0.5950,-0.0443,0
14475664,0.4892,0.5928,-0.2974,0.5664,-0.1829,-0.5064,0.0455,0
14475830,0.4896,0.5923,-0.2982,0.5661,-0.2669,-0.3261,0.1334,0
14475997,0.4900,0.5918,-0.2991,0.5659,-0.0939,-0.1740,0.1802,0
14476164,0.4904,0.5913,-0.2998,0.5657,0.0855,-0.2219,0.0814,0
14476330,0.4905,0.5912,-0.3003,0.5654,-0.0580,-0.3528,-0.0578,0
14476497,0.4906,0.5910,-0.3006,0.5654,0.0225,-0.5102,0.0631,0
14476664,0.4908,0.5906,-0.3009,0.5655,-0.0640,-0.4289,0.1409,0
14476830,0.4915,0.5895,-0.3013,0.5659,-0.0155,-0.3160,0.2757,0
14476997,0.4923,0.5880,-0.3018,0.5664,0.0112,-0.2388,0.0971,0
14477164,0.4928,0.5869,-0.3023,0.5668,0.1377,-0.2769,-0.1255,0
14477330,0.4929,0.5862,-0.3026,0.5673,0.1055,-0.3060,-0.2306,0
14477497,0.4928,0.5859,-0.3025,0.5678,-0.0267,-0.3594,-0.2834,0
14477664,0.4928,0.5855,-0.3024,0.5682,-0.3185,-0.3165,-0.2710,0
14477830,0.4931,0.5850,-0.3023,0.5686,-0.4105,-0.3316,-0.0619,0
14477997,0.4934,0.5845,-0.3021,0.5689,-0.1975,-0.3729,0.1394,0
14478164,0.4940,0.5838,-0.3022,0.5691,-0.1972,-0.3517,0.1374,0
14478330,0.4947,0.5829,-0.3029,0.5691,-0.4324,-0.3506,0.1184,0
14478497,0.4957,0.5818,-0.3036,0.5689,-0.4537,-0.3219,0.0158,0
14478664,0.4964,0.5813,-0.3040,0.5685,-0.4346,-0.1061,-0.2333,0
14478830,0.4968,0.5815,-0.3044,0.5679,-0.4181,0.0281,-0.1801,0
14478997,0.4970,0.5815,-0.3045,0.5675,-0.1806,-0.2146,0.1740,0
14479164,0.4975,0.5813,-0.3049,0.5672,-0.0219,-0.4997,0.2968,0
14479331,0.4982,0.5804,-0.3057,0.5670,-0.0370,-0.5049,0.1733,0
14479497,0.4991,0.5790,-0.3065,0.5671,0.0555,-0.3376,-0.0627,0
14479664,0.4995,0.5783,-0.3070,0.5673,0.1693,-0.1890,-0.2317,0
14479831,0.4994,0.5780,-0.3071,0.5676,0.1958,-0.1514,-0.1873,0
14479997,0.4987,0.5783,-0.3070,0.5680,0.0880,-0.1937,-0.2098,0
14480164,0.4979,0.5787,-0.3070,0.5683,-0.1317,-0.2372,-0.0857,0
14480331,0.4971,0.5793,-0.3071,0.5683,-0.2696,-0.3401,-0.0384,0
14480497,0.4966,0.5795,-0.3073,0.5684,-0.2665,-0.3658,0.0208,0
14480664,0.4963,0.5796,-0.3076,0.5684,-0.2007,-0.2703,-0.0727,0
14480831,0.4959,0.5799,-0.3078,0.5684,-0.1291,-0.2107,-0.0040,0
14480997,0.4954,0.5803,-0.3081,0.5683,-0.1559,-0.2198,-0.0267,0
14481164,0.4949,0.5806,-0.3083,0.5682,-0.2362,-0.3768,0.0503,0
14481331,0.4946,0.5809,-0.3084,0.5681,-0.2446,-0.4350,0.0484,0
14481497,0.4942,0.5813,-0.3084,0.5681,-0.2657,-0.3894,0.1209,0
14481664,0.4941,0.5814,-0.3084,0.5681,-0.2496,-0.3796,0.2171,0
14481831,0.4942,0.5813,-0.3082,0.5682,-0.2757,-0.4390,0.2215,0
14481997,0.4945,0.5811,-0.3081,0.5683,-0.1902,-0.3604,0.0929,0
14482164,0.4948,0.5808,-0.3081,0.5683,-0.1326,-0.2256,-0.0482,0
14482331,0.4950,0.5805,-0.3079,0.5685,-0.1081,-0.2085,-0.0984,0
14482497,0.4951,0.5805,-0.3077,0.5686,-0.2252,-0.2232,-0.0878,0
14482664,0.4951,0.5804,-0.3076,0.5686,-0.2933,-0.2851,-0.0339,0
14482831,0.4954,0.5801,-0.3078,0.5686,-0.3403,-0.1940,-0.0657,0
14482997,0.4957,0.5797,-0.3079,0.5687,-0.2097,-0.1764,-0.0886,0
14483164,0.4958,0.5795,-0.3082,0.5686,-0.1678,-0.1301,-0.1601,0
14483331,0.7507,0.0851,-0.6510,-0.0738,-0.1369,0.2403,-0.0671,0
14483497,0.7505,0.0849,-0.6513,-0.0736,-0.2436,0.1758,-0.0011,0
14483664,0.7502,0.0848,-0.6516,-0.0734,-0.2525,0.2242,0.0795,0
14483831,0.7501,0.0847,-0.6517,-0.0734,-0.2366,0.2273,0.0987,0
14483997,0.7501,0.0846,-0.6518,-0.0734,-0.2889,0.2319,-0.0318,0
14484164,0.7499,0.0847,-0.6520,-0.0734,-0.2725,0.3857,0.0899,0
14484331,0.7500,0.0847,-0.6519,-0.0735,-0.3095,0.2939,0.1082,0
14484497,0.7501,0.0846,-0.6517,-0.0737,-0.2437,0.2167,0.0233,0
14484664,0.7501,0.0846,-0.6517,-0.0738,-0.2010,0.1913,-0.0124,0
14484831,0.7500,0.0848,-0.6518,-0.0739,-0.1799,0.2425,-0.0585,0
14484997,0.7500,0.0848,-0.6518,-0.0739,-0.2250,0.3506,-0.1212,0
14485164,0.7499,0.0848,-0.6519,-0.0739,-0.2417,0.3521,-0.0661,0
14485331,0.7502,0.0845,-0.6516,-0.0740,-0.1555,0.1363,0.0968,0
14485497,0.7503,0.0842,-0.6515,-0.0741,-0.1189,0.0867,0.0502,0
14485664,0.7502,0.0841,-0.6516,-0.0741,-0.2089,0.1622,-0.0205,0
14485831,0.7501,0.0842,-0.6518,-0.0738,-0.3612,0.1330,-0.1192,0
14485997,0.7501,0.0843,-0.6518,-0.0735,-0.2398,0.2072,-0.0763,0
14486164,0.7501,0.0844,-0.6518,-0.0731,-0.1213,0.2107,0.0251,0
14486331,0.7499,0.0848,-0.6521,-0.0728,-0.1560,0.2460,0.0599,0
14486497,0.7497,0.0852,-0.6523,-0.0724,-0.2552,0.3169,0.0123,0
14486664,0.7495,0.0856,-0.6525,-0.0720,-0.3171,0.4017,-0.0196,0
14486831,0.7493,0.0859,-0.6527,-0.0718,-0.2416,0.4843,0.0102,0
14486997,0.7492,0.0859,-0.6528,-0.0718,-0.0998,0.4237,0.0550,0
14487164,0.7492,0.0860,-0.6528,-0.0718,-0.0650,0.2970,0.0100,0
14487331,0.7490,0.0862,-0.6531,-0.0718,-0.1267,0.2370,0.0051,0
14487497,0.7488,0.0861,-0.6532,-0.0719,-0.2798,0.2005,-0.0180,0
14487664,0.7487,0.0859,-0.6534,-0.0717,-0.3025,0.1728,-0.0763,0
14487831,0.7486,0.0859,-0.6535,-0.0714,-0.2014,0.1419,-0.0291,0
14487997,0.7486,0.0859,-0.6535,-0.0711,-0.1051,0.1486,0.0172,0
14488164,0.7486,0.0860,-0.6536,-0.0708,-0.0931,0.2116,-0.0173,0
14488331,0.7484,0.0863,-0.6538,-0.0704,-0.2609,0.3242,-0.0625,0
14488497,0.7484,0.0865,-0.6538,-0.0701,-0.3260,0.4120,0.0059,0
14488664,0.7486,0.0866,-0.6537,-0.0699,-0.2774,0.3935,0.0583,0
14488831,0.7488,0.0863,-0.6534,-0.0699,-0.0357,0.2363,0.0368,0
14488997,0.7489,0.0862,-0.6533,-0.0699,-0.0087,0.1378,-0.0525,0
14489164,0.7488,0.0862,-0.6534,-0.0698,-0.1656,0.1932,-0.0948,0
14489331,0.7487,0.0864,-0.6536,-0.0696,-0.2354,0.2123,-0.0525,0
14489497,0.7486,0.0865,-0.6537,-0.0694,-0.2178,0.2371,-0.0011,0
14489664,0.7484,0.0868,-0.6539,-0.0691,-0.1489,0.2463,0.0550,0
14489831,0.7482,0.0872,-0.6541,-0.0688,-0.2245,0.3063,0.0349,0
14489997,0.7480,0.0876,-0.6543,-0.0685,-0.2231,0.3011,0.0051,0
14490164,0.7479,0.0879,-0.6544,-0.0682,-0.1807,0.2446,-0.0156,0
14490331,0.7478,0.0881,-0.6546,-0.0680,-0.0936,0.2446,-0.0908,0
14490497,0.7475,0.0882,-0.6548,-0.0678,-0.0826,0.2818,-0.0652,0
14490664,0.7474,0.0882,-0.6550,-0.0676,-0.1666,0.2811,0.0798,0
14490831,0.7473,0.0882,-0.6551,-0.0674,-0.2016,0.1913,0.0807,0
14490997,0.7472,0.0881,-0.6553,-0.0672,-0.1362,0.1482,0.0505,0
14491164,0.7472,0.0879,-0.6553,-0.0670,-0.1601,0.1991,-0.0147,0
14491331,0.7472,0.0877,-0.6554,-0.0668,-0.2354,0.2562,-0.0353,0
14491497,0.7472,0.0875,-0.6554,-0.0666,-0.2695,0.3035,0.0315,0
14491664,0.7473,0.0874,-0.6554,-0.0665,-0.2243,0.3167,0.0509,0
14491831,0.7473,0.0873,-0.6553,-0.0664,-0.1191,0.3006,-0.0068,0
14491997,0.7473,0.0872,-0.6554,-0.0662,-0.1228,0.2507,0.0144,0
14492164,0.7474,0.0871,-0.6553,-0.0661,-0.1873,0.2571,0.0388,0
14492331,0.7476,0.0869,-0.6551,-0.0661,-0.2503,0.2629,0.0103,0
14492497,0.7478,0.0868,-0.6549,-0.0661,-0.2412,0.2008,-0.0555,0
14492664,0.7479,0.0867,-0.6548,-0.0660,-0.1358,0.2149,-0.1257,0
14492831,0.7478,0.0868,-0.6549,-0.0660,-0.0641,0.2821,-0.0441,0
14492997,0.7478,0.0871,-0.6549,-0.0659,-0.1280,0.2950,0.0693,0
14493164,0.7477,0.0873,-0.6549,-0.0660,-0.2000,0.3370,0.0071,0
14493331,0.7477,0.0871,-0.6549,-0.0662,-0.1471,0.3296,-0.0833,0
14493497,0.7477,0.0868,-0.6550,-0.0665,-0.1048,0.2871,-0.0580,0
14493664,0.7477,0.0866,-0.6550,-0.0668,-0.1001,0.2293,0.0015,0
14493831,0.7476,0.0865,-0.6551,-0.0670,-0.1284,0.2120,0.0075,0
14493997,0.7475,0.0864,-0.6552,-0.0673,-0.2253,0.2853,-0.0294,0
14494164,0.7475,0.0862,-0.6551,-0.0675,-0.2125,0.3304,-0.0137,0
14494331,0.7476,0.0861,-0.6551,-0.0677,-0.1237,0.2327,0.0577,0
14494497,0.7476,0.0860,-0.6551,-0.0679,-0.0929,0.1858,0.0520,0
14494664,0.7475,0.0859,-0.6551,-0.0680,-0.1660,0.1578,-0.0011,0
14494831,0.7475,0.0859,-0.6552,-0.0680,-0.2815,0.1977,-0.0111,0
14494997,0.7475,0.0859,-0.6552,-0.0680,-0.1963,0.2946,-0.0668,0
14495164,0.7475,0.0858,-0.6552,-0.0680,-0.0832,0.3099,-0.0426,0
14495331,0.7475,0.0856,-0.6552,-0.0682,-0.1327,0.3061,0.0344,0
14495497,0.7476,0.0854,-0.6551,-0.0684,-0.2019,0.2890,-0.0665,0
14495664,0.7476,0.0852,-0.6551,-0.0683,-0.2150,0.2542,-0.0706,0
14495831,0.7476,0.0848,-0.6551,-0.0683,-0.1582,0.2246,0.0224,0
14495998,0.7478,0.0842,-0.6551,-0.0684,-0.0638,0.2323,0.0200,0
14496164,0.7478,0.0837,-0.6551,-0.0684,-0.1081,0.1879,-0.0633,0
14496331,0.7477,0.0835,-0.6553,-0.0683,-0.2200,0.1471,-0.1137,0
14496498,0.7475,0.0834,-0.6555,-0.0680,-0.2307,0.1943,-0.0105,0
14496664,0.7474,0.0831,-0.6557,-0.0678,-0.1660,0.3208,0.0753,0
14496831,0.7473,0.0828,-0.6559,-0.0677,-0.1509,0.3902,-0.0003,0
14496998,0.7472,0.0824,-0.6560,-0.0678,-0.2269,0.3351,-0.0024,0
14497164,0.7472,0.0822,-0.6560,-0.0678,-0.2169,0.2830,0.0294,0
14497331,0.7472,0.0821,-0.6560,-0.0678,-0.1192,0.2558,0.0681,0
14497498,0.7472,0.0819,-0.6560,-0.0678,-0.1072,0.2335,0.0464,0
14497664,0.7472,0.0817,-0.6560,-0.0680,-0.1815,0.2776,0.0037,0
14497831,0.7473,0.0815,-0.6559,-0.0680,-0.1942,0.2747,-0.0057,0
14497998,0.7474,0.0813,-0.6559,-0.0681,-0.0955,0.2122,-0.0150,0
14498164,0.7473,0.0811,-0.6560,-0.0681,-0.0414,0.2006,0.0003,0
14498331,0.7473,0.0810,-0.6560,-0.0681,-0.1133,0.2480,0.0164,0
14498498,0.7473,0.0809,-0.6560,-0.0681,-0.2451,0.2714,-0.0293,0
14498664,0.7474,0.0806,-0.6559,-0.0682,-0.2178,0.2550,-0.0672,0
14498831,0.7474,0.0803,-0.6560,-0.0682,-0.1219,0.2739,-0.0248,0
14498998,0.7475,0.0801,-0.6559,-0.0682,-0.1785,0.2614,0.0464,0
14499164,0.7476,0.0798,-0.6558,-0.0683,-0.1316,0.2767,0.0349,0
14499331,0.7477,0.0795,-0.6557,-0.0684,-0.1025,0.2683,0.0560,0
14499498,0.7478,0.0792,-0.6556,-0.0685,-0.1144,0.2312,0.0171,0
14499664,0.7479,0.0788,-0.6555,-0.0685,-0.1689,0.1727,0.0064,0
14499831,0.7481,0.0785,-0.6553,-0.0685,-0.1546,0.1851,0.0458,0
14499998,0.7483,0.0782,-0.6551,-0.0684,-0.1497,0.1846,0.0632,0
14500164,0.7485,0.0779,-0.6549,-0.0685,-0.1358,0.1949,0.0257,0
14500331,0.7487,0.0778,-0.6547,-0.0684,-0.1698,0.1858,-0.0558,0
14500498,0.7489,0.0777,-0.6546,-0.0683,-0.1716,0.2268,-0.1121,0
14500664,0.7490,0.0775,-0.6545,-0.0681,-0.1360,0.2685,-0.0341,0
14500831,0.7491,0.0774,-0.6545,-0.0678,-0.0762,0.3131,-0.0326,0
14500998,0.7491,0.0773,-0.6544,-0.0676,-0.1065,0.3075,-0.0194,0
14501164,0.7492,0.0770,-0.6544,-0.0675,-0.1255,0.2823,0.0442,0
14501331,0.7492,0.0767,-0.6544,-0.0675,-0.1465,0.2536,0.0929,0
14501498,0.7492,0.0764,-0.6544,-0.0676,-0.1865,0.2486,0.0370,0
14501664,0.7492,0.0761,-0.6544,-0.0676,-0.1655,0.2666,-0.0308,0
14501831,0.7492,0.0760,-0.6545,-0.0675,-0.1126,0.2589,0.0400,0
14501998,0.7493,0.0761,-0.6544,-0.0671,-0.1569,0.1975,0.1543,0
14502164,0.7495,0.0759,-0.6542,-0.0671,-0.1831,0.1978,0.1284,0
14502331,0.7496,0.0759,-0.6541,-0.0670,-0.2032,0.2043,-0.0058,0
14502498,0.7497,0.0759,-0.6540,-0.0668,-0.1458,0.2676,-0.0606,0
14502664,0.7499,0.0758,-0.6539,-0.0666,-0.1636,0.2804,-0.0251,0
14502831,0.7501,0.0756,-0.6536,-0.0665,-0.1132,0.2913,-0.0108,0
14502998,0.7503,0.0753,-0.6534,-0.0665,-0.0132,0.2494,0.0306,0
14503164,0.7504,0.0750,-0.6533,-0.0665,-0.0782,0.2606,-0.0111,0
14503331,0.7506,0.0747,-0.6531,-0.0665,-0.1900,0.3031,-0.0674,0
14503498,0.7509,0.0744,-0.6529,-0.0664,-0.1951,0.3001,-0.0147,0
14503664,0.7511,0.0740,-0.6527,-0.0664,-0.1147,0.2486,0.0265,0
14503831,0.7513,0.0738,-0.6525,-0.0662,-0.0636,0.1929,0.0098,0
14503998,0.7515,0.0735,-0.6523,-0.0662,-0.1017,0.2270,0.0169,0
14504164,0.7517,0.0733,-0.6521,-0.0661,-0.2131,0.2701,-0.0009,0
14504331,0.7519,0.0732,-0.6518,-0.0661,-0.2011,0.2381,-0.0559,0
14504498,0.7521,0.0732,-0.6516,-0.0660,-0.1187,0.2426,-0.0236,0
14504664,0.7523,0.0731,-0.6514,-0.0657,-0.0505,0.2264,0.0352,0
14504831,0.7526,0.0732,-0.6512,-0.0654,-0.0916,0.2522,0.0509,0
14504998,0.7527,0.0731,-0.6510,-0.0652,-0.0714,0.2862,-0.0789,0
14505164,0.7528,0.0732,-0.6509,-0.0650,-0.0907,0.2677,-0.0416,0
14505331,0.7529,0.0731,-0.6508,-0.0649,-0.1502,0.2692,-0.0129,0
14505498,0.7531,0.0731,-0.6506,-0.0648,-0.1488,0.2970,0.0170,0
14505664,0.7533,0.0729,-0.6504,-0.0649,-0.1142,0.2822,0.0315,0
14505831,0.7535,0.0726,-0.6502,-0.0650,-0.1369,0.3076,0.0484,0
14505998,0.7537,0.0724,-0.6499,-0.0651,-0.1237,0.2654,0.0297,0
14506164,0.7540,0.0722,-0.6497,-0.0653,-0.1024,0.2428,-0.0854,0
14506331,0.7541,0.0722,-0.6495,-0.0653,-0.0817,0.2594,-0.1168,0
14506498,0.7542,0.0721,-0.6494,-0.0653,-0.0316,0.2860,-0.0901,0
14506664,0.7542,0.0719,-0.6494,-0.0655,-0.1090,0.3095,-0.0532,0
14506831,0.7543,0.0715,-0.6493,-0.0657,-0.1081,0.2940,-0.0035,0
14506998,0.7545,0.0709,-0.6491,-0.0661,-0.1326,0.2249,-0.0165,0
14507164,0.7546,0.0706,-0.6490,-0.0663,-0.1470,0.1733,-0.0118,0
14507331,0.7546,0.0704,-0.6490,-0.0664,-0.2295,0.1716,0.0050,0
14507498,0.7547,0.0704,-0.6489,-0.0664,-0.2202,0.2522,0.0300,0
14507664,0.7547,0.0704,-0.6488,-0.0665,-0.1813,0.3008,0.1037,0
14507831,0.7549,0.0703,-0.6487,-0.0666,-0.1255,0.2744,0.1046,0
14507998,0.7550,0.0702,-0.6485,-0.0668,-0.0791,0.2469,0.0748,0
14508164,0.7552,0.0698,-0.6483,-0.0672,-0.1154,0.2120,0.0365,0
14508331,0.7554,0.0697,-0.6481,-0.0674,-0.1232,0.1863,-0.0233,0
14508498,0.7554,0.0695,-0.6480,-0.0676,-0.1397,0.2162,-0.0530,0
14508664,0.7555,0.0695,-0.6479,-0.0679,-0.1893,0.2090,-0.0259,0
14508831,0.7556,0.0694,-0.6477,-0.0680,-0.1806,0.2487,-0.0112,0
14508998,0.7558,0.0694,-0.6475,-0.0682,-0.1421,0.2054,0.0333,0
14509164,0.7560,0.0693,-0.6473,-0.0683,-0.1466,0.1527,-0.0164,0
14509331,0.7562,0.0693,-0.6471,-0.0683,-0.1195,0.1378,-0.0478,0
14509498,0.7562,0.0693,-0.6471,-0.0683,-0.1314,0.1668,-0.0656,0
14509664,0.7562,0.0695,-0.6471,-0.0682,-0.1117,0.2212,-0.0999,0
14509831,0.7561,0.0696,-0.6472,-0.0681,-0.0981,0.2239,-0.0601,0
14509998,0.7560,0.0696,-0.6472,-0.0680,-0.0834,0.2198,0.0240,0
14510164,0.7560,0.0694,-0.6473,-0.0680,-0.1179,0.3194,-0.0463,0
14510331,0.7560,0.0693,-0.6474,-0.0680,-0.1679,0.3544,-0.1035,0
14510498,0.7559,0.0692,-0.6475,-0.0681,-0.1076,0.2851,-0.0522,0
14510664,0.7557,0.0691,-0.6476,-0.0681,-0.0881,0.2666,0.0391,0
14510831,0.7556,0.0691,-0.6478,-0.0681,-0.1068,0.2917,0.0752,0
14510998,0.7554,0.0689,-0.6480,-0.0682,-0.1534,0.2979,0.1221,0
14511164,0.7554,0.0687,-0.6480,-0.0685,-0.2293,0.2830,0.1103,0
14511331,0.7554,0.0684,-0.6480,-0.0686,-0.2467,0.2375,0.0101,0
14511498,0.7554,0.0681,-0.6480,-0.0689,-0.2106,0.1737,-0.0283,0
14511664,0.7554,0.0683,-0.6480,-0.0689,-0.1515,0.1528,0.0569,0
14511831,0.7554,0.0685,-0.6480,-0.0689,-0.1646,0.1998,0.0521,0
14511998,0.7554,0.0687,-0.6480,-0.0690,-0.1825,0.2077,-0.0205,0
14512164,0.7553,0.0690,-0.6480,-0.0689,-0.1489,0.2069,-0.0335,0
14512331,0.7553,0.0691,-0.6481,-0.0690,-0.1298,0.2039,-0.0888,0
14512498,0.7552,0.0694,-0.6481,-0.0689,-0.0411,0.2049,-0.0053,0
14512665,0.7552,0.0697,-0.6481,-0.0687,-0.0276,0.1206,0.1046,0
14512831,0.7554,0.0702,-0.6479,-0.0683,-0.0830,0.1489,0.2825,0
14512998,0.7557,0.0707,-0.6475,-0.0682,-0.1980,0.3653,0.1730,0
14513165,0.7560,0.0710,-0.6471,-0.0684,-0.2802,0.3628,0.1577,0
14513331,0.7564,0.0711,-0.6466,-0.0688,-0.2282,0.4048,-0.1217,0
14513498,0.7565,0.0716,-0.6463,-0.0692,-0.1962,0.3617,-0.2255,0
14513665,0.7564,0.0726,-0.6464,-0.0695,-0.0328,0.3514,-0.1512,0
14513831,0.7560,0.0739,-0.6467,-0.0696,0.1021,0.3563,-0.1131,0
14513998,0.7557,0.0748,-0.6469,-0.0701,-0.0223,0.3733,-0.0568,0
14514165,0.7554,0.0751,-0.6470,-0.0710,-0.0774,0.3948,-0.0496,0
14514331,0.7552,0.0754,-0.6471,-0.0717,-0.0944,0.3663,-0.0245,0
14514498,0.7550,0.0755,-0.6473,-0.0725,-0.0811,0.2334,0.0016,0
14514665,0.7548,0.0763,-0.6474,-0.0727,-0.0735,0.1989,-0.0296,0
14514831,0.7544,0.0767,-0.6477,-0.0732,-0.0438,0.1801,-0.0121,0
14514998,0.7540,0.0771,-0.6482,-0.0736,-0.1008,0.1469,0.0475,0
14515165,0.7536,0.0774,-0.6485,-0.0741,-0.1619,0.1571,-0.0039,0
14515331,0.7532,0.0779,-0.6490,-0.0744,-0.1525,0.2016,-0.0192,0
14515498,0.7527,0.0785,-0.6494,-0.0747,-0.1776,0.2148,0.0171,0
14515665,0.7524,0.0791,-0.6496,-0.0749,-0.1072,0.1360,0.0919,0
14515831,0.7523,0.0794,-0.6497,-0.0752,-0.0509,0.2278,-0.0517,0
14515998,0.7519,0.0797,-0.6500,-0.0756,0.0717,0.3190,-0.1808,0
14516165,0.7514,0.0804,-0.6505,-0.0760,-0.0938,0.3323,-0.0781,0
14516331,0.7509,0.0813,-0.6509,-0.0765,-0.1832,0.2874,0.0541,0
14516498,0.7503,0.0822,-0.6514,-0.0771,-0.1509,0.3060,0.0307,0
14516665,0.7495,0.0829,-0.6521,-0.0779,0.0243,0.3325,-0.0447,0
14516831,0.7487,0.0836,-0.6529,-0.0787,-0.0892,0.3213,0.1168,0
14516998,0.7482,0.0846,-0.6532,-0.0796,-0.3530,0.3778,0.1940,0
14517165,0.7479,0.0860,-0.6533,-0.0804,-0.3036,0.3480,0.1128,0
14517331,0.7474,0.0873,-0.6536,-0.0813,-0.1514,0.2462,0.0266,0
14517498,0.7469,0.0885,-0.6539,-0.0822,-0.0876,0.2087,-0.0077,0
14517665,0.7464,0.0895,-0.6542,-0.0830,-0.0717,0.2389,0.0374,0
14517831,0.7460,0.0906,-0.6545,-0.0837,-0.0551,0.2570,0.1054,0
14517998,0.7457,0.0914,-0.6546,-0.0845,-0.0689,0.2865,0.0894,0
14518165,0.7455,0.0917,-0.6546,-0.0856,-0.0320,0.4131,0.0180,0
14518331,0.7452,0.0922,-0.6548,-0.0868,-0.0541,0.4837,0.0687,0
14518498,0.7450,0.0927,-0.6547,-0.0881,-0.2140,0.3933,0.2319,0
14518665,0.7452,0.0926,-0.6543,-0.0896,-0.2108,0.2211,0.2322,0
14518831,0.7456,0.0925,-0.6537,-0.0908,-0.2477,0.0590,0.1781,0
14518998,0.7459,0.0928,-0.6532,-0.0918,-0.2733,0.0589,-0.1604,0
14519165,0.7458,0.0937,-0.6530,-0.0925,-0.3124,0.1862,-0.1631,0
14519331,0.7459,0.0950,-0.6526,-0.0932,-0.2654,0.2784,0.0536,0
14519498,0.7461,0.0963,-0.6521,-0.0940,-0.0578,0.2772,0.1803,0
14519665,0.7463,0.0971,-0.6515,-0.0950,0.1674,0.1560,0.0028,0
14519831,0.7463,0.0977,-0.6513,-0.0960,0.1857,0.0822,-0.3187,0
14519998,0.7459,0.0986,-0.6516,-0.0965,0.0447,0.0264,-0.3592,0
14520165,0.7454,0.0995,-0.6520,-0.0969,-0.1102,0.0971,-0.2360,0
14520331,0.7450,0.1001,-0.6522,-0.0974,-0.1544,0.3150,-0.1085,0
14520498,0.7446,0.1006,-0.6526,-0.0979,-0.1253,0.3684,-0.2067,0
14520665,0.7440,0.1010,-0.6532,-0.0984,-0.0633,0.2887,-0.2204,0
14520831,0.7433,0.1015,-0.6537,-0.0988,-0.1463,0.2565,0.0082,0
14520998,0.7430,0.1018,-0.6539,-0.0995,-0.2695,0.2294,0.1986,0
14521165,0.7428,0.1022,-0.6541,-0.1003,-0.2357,0.2642,0.1886,0
14521331,0.7425,0.1028,-0.6541,-0.1011,-0.1843,0.1225,0.0932,0
14521498,0.7423,0.1035,-0.6542,-0.1019,-0.1106,0.1128,0.0128,0
14521665,0.7420,0.1043,-0.6543,-0.1028,-0.0122,0.2783,0.0166,0
14521831,0.7414,0.1054,-0.6546,-0.1035,-0.1004,0.4844,0.0740,0
14521998,0.7410,0.1066,-0.6547,-0.1045,-0.2213,0.4350,0.0948,0
14522165,0.7407,0.1076,-0.6547,-0.1057,-0.0666,0.3032,0.1735,0
14522331,0.7406,0.1082,-0.6546,-0.1069,-0.0383,0.2425,0.1819,0
14522498,0.7405,0.1084,-0.6543,-0.1083,0.0344,0.2437,-0.0041,0
14522665,0.7403,0.1088,-0.6544,-0.1095,-0.0129,0.2490,-0.0680,0
14522831,0.7399,0.1097,-0.6544,-0.1106,-0.1089,0.2042,-0.0164,0
14522998,0.7396,0.1107,-0.6544,-0.1117,-0.1017,0.2857,-0.0309,0
14523165,0.7393,0.1118,-0.6544,-0.1127,-0.0290,0.3056,-0.1034,0
14523331,0.7389,0.1128,-0.6545,-0.1138,-0.0124,0.2389,-0.0829,0
14523498,0.7387,0.1136,-0.6544,-0.1148,-0.0381,0.1946,-0.0565,0
14523665,0.7385,0.1142,-0.6544,-0.1159,-0.0596,0.1239,-0.0717,0
14523831,0.7383,0.1147,-0.6543,-0.1169,-0.0936,0.0242,-0.0068,0
14523998,0.7380,0.1154,-0.6543,-0.1176,-0.1244,0.0121,-0.1722,0
14524165,0.7376,0.1164,-0.6547,-0.1179,-0.0774,0.1301,-0.3888,0
14524331,0.7370,0.1173,-0.6551,-0.1182,-0.0038,0.3886,-0.3155,0
14524498,0.7366,0.1178,-0.6553,-0.1190,0.0572,0.5134,-0.0576,0
14524665,0.7363,0.1178,-0.6554,-0.1201,-0.0294,0.3040,0.0310,0
14524831,0.7360,0.1179,-0.6555,-0.1209,-0.0993,0.0091,-0.1482,0
14524998,0.7356,0.1180,-0.6560,-0.1214,-0.0685,-0.1177,-0.1116,0
14525165,0.7352,0.1180,-0.6563,-0.1218,-0.1124,-0.0277,0.0855,0
14525331,0.7350,0.1178,-0.6565,-0.1223,-0.1961,0.1217,0.1328,0
14525498,0.7345,0.1182,-0.6569,-0.1224,-0.3214,0.1377,-0.0753,0
14525665,0.7340,0.1191,-0.6574,-0.1222,-0.2927,0.1666,-0.1808,0
14525831,0.7337,0.1198,-0.6576,-0.1222,-0.1390,0.2454,-0.1465,0
14525998,0.7333,0.1203,-0.6580,-0.1222,-0.0138,0.3601,-0.0313,0
14526165,0.7329,0.1208,-0.6583,-0.1221,-0.1136,0.2922,0.0602,0
14526331,0.7326,0.1214,-0.6586,-0.1220,-0.1541,0.3064,-0.0346,0
14526498,0.7323,0.1217,-0.6588,-0.1221,-0.1423,0.3369,-0.0891,0
14526665,0.7321,0.1218,-0.6590,-0.1223,-0.0655,0.2889,-0.1568,0
14526831,0.7318,0.1218,-0.6593,-0.1224,0.0058,0.1583,-0.0684,0
14526998,0.7314,0.1218,-0.6597,-0.1224,-0.0640,0.0822,-0.0894,0
14527165,0.7309,0.1217,-0.6603,-0.1222,-0.0875,0.0874,-0.1478,0
14527331,0.7304,0.1212,-0.6610,-0.1221,-0.1023,0.1813,-0.0477,0
14527498,0.7302,0.1203,-0.6614,-0.1220,-0.0129,0.2253,0.0133,0
14527665,0.7300,0.1192,-0.6618,-0.1220,-0.1211,0.0963,0.0303,0
14527831,0.7298,0.1185,-0.6622,-0.1215,-0.2008,-0.0462,-0.0809,0
14527998,0.7294,0.1182,-0.6629,-0.1207,-0.2483,0.0349,-0.1932,0
14528165,0.7290,0.1180,-0.6635,-0.1200,-0.1949,0.1914,-0.0900,0
14528331,0.7288,0.1177,-0.6638,-0.1195,-0.1216,0.3606,-0.0515,0
14528498,0.7288,0.1171,-0.6641,-0.1191,-0.0386,0.3430,0.0051,0
14528665,0.7285,0.1167,-0.6645,-0.1187,-0.0859,0.2150,0.0416,0
14528831,0.7284,0.1161,-0.6648,-0.1184,-0.2120,0.2400,0.1564,0
14528998,0.7284,0.1157,-0.6649,-0.1180,-0.3764,0.2581,0.2031,0
14529165,0.7286,0.1155,-0.6648,-0.1178,-0.2967,0.1297,0.0815,0
14529332,0.7285,0.1158,-0.6650,-0.1172,-0.0563,0.0774,0.0934,0
14529498,0.7284,0.1164,-0.6651,-0.1164,-0.0125,0.2287,0.0819,0
14529665,0.7284,0.1166,-0.6651,-0.1158,-0.0460,0.3445,0.1270,0
14529832,0.7284,0.1165,-0.6652,-0.1155,-0.0705,0.3074,0.2303,0
14529998,0.7285,0.1160,-0.6652,-0.1155,-0.0378,0.2897,0.1100,0
14530165,0.7288,0.1152,-0.6650,-0.1156,-0.0845,0.2688,0.0489,0
14530332,0.7290,0.1145,-0.6648,-0.1157,-0.1605,0.1660,-0.1013,0
14530498,0.7292,0.1141,-0.6647,-0.1157,-0.1806,0.1564,-0.1010,0
14530665,0.7295,0.1136,-0.6645,-0.1156,-0.0977,0.1308,-0.0058,0
14530832,0.7299,0.1132,-0.6642,-0.1154,-0.1089,0.1649,0.0372,0
14530998,0.5176,0.6061,-0.2934,0.5278,-0.1235,-0.1973,0.0137,0
14531165,0.5177,0.6056,-0.2937,0.5282,-0.1501,-0.1635,0.0253,0
14531332,0.5179,0.6049,-0.2940,0.5286,-0.1743,-0.0866,-0.0529,0
14531498,0.5179,0.6044,-0.2943,0.5291,-0.1418,-0.0275,-0.1422,0
14531665,0.5178,0.6041,-0.2944,0.5295,-0.0436,-0.0880,-0.0941,0
14531832,0.5175,0.6039,-0.2944,0.5299,-0.0738,-0.1031,0.0760,0
14531998,0.5174,0.6037,-0.2939,0.5306,-0.1794,-0.1808,0.1856,0
14532165,0.5174,0.6033,-0.2932,0.5314,-0.2496,-0.3219,0.0287,0
14532332,0.5175,0.6028,-0.2924,0.5322,-0.1621,-0.2066,-0.1485,0
14532498
14532665
