DeviceTag: Xsens X,FirmwareVersion: 3.0.0,AppVersion: 2023.6.0,SyncStatus: Unknown (Synced/Un-synced),OutputRate: 60,FilterProfile: Unknown,Measurement Mode: Sensor fusion Mode - Extended (Quaternion),StartTime: 2026-07-17 11:13:52.529,© Movella Technologies B.V. 2005-2026
SampleTimeFine,Quat_W,Quat_X,Quat_Y,Quat_Z,FreeAcc_X,FreeAcc_Y,FreeAcc_Z,Status
39683930,0.5653,0.3053,-0.6059,0.4691,0.0125,-0.0599,0.0590,0
39684096,0.5651,0.3051,-0.6060,0.4694,-0.0584,-0.0715,0.0966,0
39684263,0.5648,0.3056,-0.6055,0.4700,-0.0893,-0.0029,0.1890,0
39684430,0.5648,0.3064,-0.6050,0.4702,-0.1114,0.0629,0.3249,0
39684596,0.5654,0.3067,-0.6047,0.4697,-0.1364,-0.0875,0.2435,0
39684763,0.5659,0.3068,-0.6044,0.4695,-0.0906,-0.1352,0.1361,0
39684930,0.5662,0.3069,-0.6042,0.4693,-0.0657,-0.0743,0.1633,0
39685096,0.5666,0.3068,-0.6039,0.4691,0.0163,0.0369,0.1633,0
39685263,0.5668,0.3068,-0.6038,0.4690,0.0854,0.0389,0.0999,0
39685430,0.5668,0.3069,-0.6039,0.4689,0.0869,-0.0387,0.0977,0
39685596,0.5664,0.3070,-0.6044,0.4687,0.0137,-0.0217,0.1293,0
39685763,0.5660,0.3071,-0.6048,0.4685,-0.0720,-0.0049,0.1552,0
39685930,0.5659,0.3071,-0.6050,0.4684,-0.1426,-0.0390,0.1971,0
39686096,0.5659,0.3071,-0.6050,0.4684,-0.1063,-0.1039,0.1779,0
39686263,0.5657,0.3073,-0.6050,0.4684,-0.0561,-0.0942,0.1568,0
39686430,0.5655,0.3075,-0.6053,0.4682,-0.0945,-0.0664,0.1318,0
39686596,0.5653,0.3077,-0.6055,0.4681,-0.1112,-0.0110,0.1441,0
39686763,0.5651,0.3078,-0.6056,0.4681,-0.1110,0.0117,0.1151,0
39686930,0.5650,0.3080,-0.6056,0.4681,-0.0946,-0.0319,0.0825,0
39687096,0.5650,0.3081,-0.6057,0.4681,-0.0508,-0.0489,0.0711,0
39687263,0.5647,0.3083,-0.6058,0.4680,-0.0800,-0.1124,0.1182,0
39687430,0.5645,0.3084,-0.6060,0.4679,-0.1055,-0.0913,0.1576,0
39687596,0.5643,0.3086,-0.6061,0.4679,-0.1022,-0.0798,0.1590,0
39687763,0.5642,0.3087,-0.6062,0.4679,-0.1191,-0.1668,0.1911,0
39687930,0.5641,0.3088,-0.6062,0.4680,-0.0816,-0.1475,0.1503,0
39688096,0.5638,0.3090,-0.6064,0.4679,-0.0914,-0.1334,0.1071,0
39688263,0.5636,0.3091,-0.6066,0.4678,-0.0943,-0.0688,0.1497,0
39688430,0.5633,0.3093,-0.6067,0.4679,-0.0994,-0.1113,0.1309,0
39688596,0.5631,0.3094,-0.6068,0.4679,-0.1136,-0.1189,0.1260,0
39688763,0.5628,0.3095,-0.6071,0.4678,-0.1529,-0.1126,0.1382,0
39688930,0.5626,0.3097,-0.6073,0.4678,-0.1228,-0.1127,0.1419,0
39689096,0.5624,0.3098,-0.6073,0.4678,-0.1259,-0.1726,0.1486,0
39689263,0.5622,0.3099,-0.6075,0.4678,-0.1069,-0.1488,0.1471,0
39689430,0.5621,0.3099,-0.6076,0.4678,-0.1098,-0.1693,0.1040,0
39689596,0.5620,0.3100,-0.6076,0.4678,-0.0640,-0.1437,0.0984,0
39689763,0.5618,0.3103,-0.6076,0.4679,-0.0585,-0.1813,0.1224,0
39689930,0.5615,0.3105,-0.6078,0.4679,-0.0833,-0.2324,0.2114,0
39690096,0.5611,0.3106,-0.6081,0.4678,-0.1562,-0.2136,0.2110,0
39690263,0.5607,0.3108,-0.6086,0.4676,-0.2400,-0.1496,0.1713,0
39690430,0.5602,0.3109,-0.6090,0.4675,-0.2817,-0.0923,0.1598,0
39690596,0.5600,0.3110,-0.6092,0.4675,-0.2810,-0.0451,0.1665,0
39690763,0.5600,0.3110,-0.6090,0.4677,-0.2161,-0.1241,0.1337,0
39690930,0.5601,0.3110,-0.6088,0.4679,-0.1360,-0.2444,0.0565,0
39691096,0.5600,0.3111,-0.6088,0.4680,-0.0299,-0.2900,0.0828,0
39691263,0.5597,0.3112,-0.6091,0.4679,-0.0581,-0.3254,0.1590,0
39691430,0.5592,0.3113,-0.6095,0.4678,-0.1243,-0.2526,0.1365,0
39691596,0.5587,0.3115,-0.6100,0.4676,-0.2078,-0.1684,0.1761,0
39691763,0.5583,0.3117,-0.6104,0.4676,-0.3201,-0.1978,0.1964,0
39691930,0.5579,0.3118,-0.6107,0.4675,-0.3438,-0.1853,0.2066,0
39692096,0.5577,0.3118,-0.6111,0.4674,-0.2917,-0.1648,0.1871,0
39692263,0.5575,0.3116,-0.6114,0.4671,-0.2413,-0.1589,0.2240,0
39692430,0.5573,0.3115,-0.6118,0.4670,-0.1780,-0.1758,0.2073,0
39692596,0.5571,0.3114,-0.6123,0.4666,-0.1847,-0.2554,0.1346,0
39692763,0.5573,0.3107,-0.6132,0.4657,-0.1214,-0.1526,0.2476,0
39692930,0.5573,0.3099,-0.6144,0.4647,-0.1686,-0.1493,0.3267,0
39693096,0.5572,0.3094,-0.6151,0.4641,-0.2116,-0.1421,0.2183,0
39693263,0.5572,0.3090,-0.6153,0.4641,-0.1880,-0.0681,0.0863,0
39693430,0.5573,0.3088,-0.6151,0.4645,-0.2324,-0.3865,0.0200,0
39693596,0.5573,0.3085,-0.6152,0.4646,-0.1713,-0.4636,0.0156,0
39693763,0.5569,0.3081,-0.6162,0.4639,-0.1465,-0.3054,-0.0596,0
39693930,0.5563,0.3080,-0.6173,0.4632,-0.1964,-0.0612,0.1458,0
39694096,0.5560,0.3081,-0.6176,0.4632,-0.2555,-0.0080,0.1819,0
39694263,0.5559,0.3082,-0.6172,0.4637,-0.2860,-0.1796,0.0925,0
39694430,0.5559,0.3082,-0.6167,0.4643,-0.2693,-0.3509,0.0060,0
39694596,0.5557,0.3081,-0.6169,0.4645,-0.2566,-0.4846,-0.0277,0
39694763,0.5552,0.3080,-0.6177,0.4641,-0.2894,-0.3458,0.0474,0
39694930,0.5549,0.3079,-0.6183,0.4637,-0.3075,-0.1644,0.2439,0
39695096,0.5551,0.3079,-0.6178,0.4640,-0.2006,-0.1134,0.1517,0
39695263,0.5554,0.3081,-0.6172,0.4644,-0.1179,-0.2466,0.0278,0
39695430,0.5550,0.3082,-0.6176,0.4643,-0.1928,-0.4901,0.0719,0
39695596,0.5540,0.3080,-0.6193,0.4633,-0.3874,-0.3518,0.1874,0
39695763,0.5535,0.3073,-0.6209,0.4621,-0.4552,0.0259,0.2600,0
39695930,0.5536,0.3065,-0.6216,0.4617,-0.5507,-0.0907,0.1473,0
39696097,0.5536,0.3058,-0.6227,0.4608,-0.5664,-0.1873,0.0472,0
39696263,0.5532,0.3049,-0.6251,0.4586,-0.6128,0.0385,0.4030,0
39696430,0.5531,0.3040,-0.6265,0.4574,-0.7180,0.0571,0.5075,0
39696597,0.5539,0.3036,-0.6251,0.4586,-0.3939,0.0376,0.4538,0
39696763,0.5555,0.3029,-0.6224,0.4607,0.0934,-0.7641,0.3426,0
39696930,0.5556,0.3021,-0.6221,0.4616,0.6032,-1.5715,-0.1385,0
39697097,0.5538,0.3015,-0.6242,0.4613,0.1506,-0.8450,-0.1063,0
39697263,0.5521,0.3010,-0.6263,0.4607,-0.2661,-0.3668,-0.0470,0
39697430,0.5511,0.3009,-0.6269,0.4613,-0.4199,-0.0991,0.0022,0
39697597,0.5512,0.3010,-0.6259,0.4624,-0.2133,-0.1469,0.2013,0
39697763,0.5516,0.3012,-0.6242,0.4641,-0.0234,-0.6755,0.0498,0
39697930,0.5509,0.3016,-0.6239,0.4651,0.0881,-0.8485,-0.0762,0
39698097,0.5491,0.3016,-0.6256,0.4648,-0.4915,-0.6757,-0.0113,0
39698263,0.5475,0.3011,-0.6284,0.4633,-0.6177,0.0732,0.1173,0
39698430,0.5468,0.3011,-0.6285,0.4640,-0.7653,0.1452,0.4006,0
39698597,0.5478,0.3009,-0.6256,0.4668,-0.5072,-0.4965,0.1009,0
39698763,0.5480,0.3008,-0.6245,0.4682,0.0216,-1.0187,-0.1156,0
39698930,0.5463,0.3007,-0.6263,0.4679,-0.3361,-0.7883,0.5812,0
39699097,0.5453,0.2992,-0.6279,0.4679,-0.5379,-0.2321,0.8636,0
39699263,0.5449,0.2980,-0.6275,0.4695,-0.4002,-0.5630,0.4749,0
39699430,0.5445,0.2963,-0.6276,0.4710,0.0650,-0.8046,0.0163,0
39699597,0.5434,0.2950,-0.6285,0.4719,0.0156,-0.6236,-0.0316,0
39699763,0.5423,0.2934,-0.6293,0.4731,-0.0024,-0.5064,-0.0312,0
39699930,0.5413,0.2916,-0.6301,0.4744,0.0805,-0.6942,-0.0443,0
39700097,0.5402,0.2897,-0.6307,0.4759,0.0438,-0.6736,-0.1405,0
39700263,0.5389,0.2877,-0.6315,0.4775,-0.1393,-0.7255,-0.3094,0
39700430,0.5380,0.2853,-0.6325,0.4787,-0.2130,-0.4089,-0.3372,0
39700597,0.5368,0.2834,-0.6336,0.4797,-0.1289,-0.4883,-0.1457,0
39700763,0.5356,0.2817,-0.6342,0.4812,0.0041,-0.5031,0.1719,0
39700930,0.5337,0.2806,-0.6348,0.4832,-0.3103,-0.4850,-0.0739,0
39701097,0.5317,0.2797,-0.6358,0.4845,-0.8933,-0.0982,0.0383,0
39701263,0.5304,0.2787,-0.6367,0.4855,-0.9516,0.0978,0.2822,0
39701430,0.5298,0.2779,-0.6363,0.4870,-0.3928,-0.3090,0.3467,0
39701597,0.5287,0.2780,-0.6358,0.4888,-0.2195,-0.4580,0.2768,0
39701763,0.5271,0.2786,-0.6355,0.4906,-0.7029,-0.1578,0.1905,0
39701930,0.5256,0.2791,-0.6353,0.4922,-0.9028,0.0259,0.3078,0
39702097,0.5251,0.2780,-0.6354,0.4932,-0.5319,-0.0793,0.1559,0
39702263,0.5246,0.2760,-0.6363,0.4936,-0.1757,-0.1332,0.1527,0
39702430,0.5235,0.2745,-0.6372,0.4945,0.0406,-0.7306,0.4317,0
39702597,0.5221,0.2728,-0.6382,0.4956,0.1990,-0.6572,0.0844,0
39702763,0.5200,0.2721,-0.6396,0.4965,-0.2496,-0.5790,-0.1167,0
39702930,0.5179,0.2715,-0.6404,0.4979,-0.5810,-0.5885,0.0383,0
39703097,0.5160,0.2709,-0.6409,0.4996,-0.6718,-0.5281,-0.1845,0
39703263,0.5146,0.2702,-0.6414,0.5009,-0.5287,-0.5556,-0.0393,0
39703430,0.5133,0.2696,-0.6414,0.5024,-0.3784,-0.5338,0.1396,0
39703597,0.5120,0.2693,-0.6412,0.5042,-0.3547,-0.4719,0.0556,0
39703763,0.5105,0.2691,-0.6413,0.5057,-0.5373,-0.3228,0.1305,0
39703930,0.5097,0.2681,-0.6413,0.5070,-0.4608,-0.2429,0.0397,0
39704097,0.5088,0.2674,-0.6414,0.5081,-0.4011,-0.2557,0.0790,0
39704263,0.5081,0.2667,-0.6416,0.5090,-0.4643,-0.3980,0.2336,0
39704430,0.5072,0.2661,-0.6418,0.5100,-0.6034,-0.3413,0.2536,0
39704597,0.5065,0.2654,-0.6419,0.5109,-0.6787,-0.3725,0.2399,0
39704763,0.5061,0.2646,-0.6417,0.5119,-0.5092,-0.4442,0.1802,0
39704930,0.5056,0.2642,-0.6415,0.5128,-0.3959,-0.5016,0.1331,0
39705097,0.5048,0.2641,-0.6416,0.5136,-0.4842,-0.4157,0.2768,0
39705263,0.5043,0.2639,-0.6414,0.5145,-0.7210,-0.3812,0.1256,0
39705430,0.5041,0.2636,-0.6412,0.5150,-0.6338,-0.3884,-0.1002,0
39705597,0.5039,0.2637,-0.6411,0.5154,-0.5032,-0.4209,-0.0332,0
39705763,0.5038,0.2639,-0.6408,0.5157,-0.5162,-0.2905,0.2570,0
39705930,0.5036,0.2639,-0.6405,0.5163,-0.5066,-0.4091,0.2058,0
39706097,0.5032,0.2640,-0.6405,0.5166,-0.4811,-0.3409,0.0845,0
39706263,0.5027,0.2640,-0.6407,0.5168,-0.5466,-0.3368,0.1572,0
39706430,0.5024,0.2640,-0.6407,0.5171,-0.4309,-0.4214,0.1767,0
39706597,0.5022,0.2641,-0.6407,0.5173,-0.3818,-0.4898,0.1445,0
39706763,0.5019,0.2641,-0.6407,0.5175,-0.3494,-0.4371,0.0626,0
39706930,0.5018,0.2641,-0.6407,0.5177,-0.4184,-0.3889,0.0946,0
39707097,0.5016,0.2640,-0.6408,0.5178,-0.3528,-0.3969,0.2499,0
39707263,0.5015,0.2638,-0.6407,0.5181,-0.2745,-0.4719,0.1858,0
39707430,0.5009,0.2640,-0.6407,0.5185,-0.2334,-0.4769,0.0895,0
39707597,0.5001,0.2644,-0.6409,0.5189,-0.4743,-0.4573,0.1712,0
39707763,0.4995,0.2647,-0.6408,0.5193,-0.6437,-0.4061,0.1817,0
39707930,0.4993,0.2648,-0.6408,0.5196,-0.4865,-0.5218,0.1231,0
39708097,0.4989,0.2650,-0.6407,0.5200,-0.3975,-0.5617,0.0452,0
39708263,0.4982,0.2656,-0.6406,0.5204,-0.4670,-0.4777,0.0794,0
39708430,0.4978,0.2659,-0.6407,0.5206,-0.4041,-0.4934,0.1220,0
39708597,0.4972,0.2663,-0.6409,0.5207,-0.2981,-0.4907,0.0599,0
39708763,0.4967,0.2667,-0.6410,0.5208,-0.3991,-0.4434,0.1038,0
39708930,0.4962,0.2670,-0.6411,0.5211,-0.3052,-0.4328,0.1050,0
39709097,0.4956,0.2672,-0.6411,0.5215,-0.3440,-0.4189,-0.0591,0
39709263,0.4950,0.2674,-0.6414,0.5217,-0.3536,-0.3881,-0.0304,0
39709430,0.4946,0.2672,-0.6417,0.5218,-0.3499,-0.3570,0.1681,0
39709597,0.4945,0.2667,-0.6419,0.5218,-0.0654,-0.4565,0.0599,0
39709763,0.4941,0.2664,-0.6423,0.5219,-0.1327,-0.5878,0.1863,0
39709930,0.4936,0.2661,-0.6427,0.5220,-0.4184,-0.4543,0.1936,0
39710097,0.4932,0.2656,-0.6432,0.5221,-0.1668,-0.6508,0.2577,0
39710263,0.4924,0.2653,-0.6435,0.5226,-0.1320,-0.7058,0.2733,0
39710430,0.4915,0.2649,-0.6439,0.5231,-0.3393,-0.5875,0.0920,0
39710597,0.4907,0.2647,-0.6442,0.5236,-0.3151,-0.5648,0.1995,0
39710763,0.4903,0.2642,-0.6443,0.5241,-0.3347,-0.5937,0.1576,0
39710930,0.4897,0.2637,-0.6445,0.5246,-0.5096,-0.5329,-0.0915,0
39711097,0.4894,0.2632,-0.6447,0.5250,-0.4361,-0.5163,-0.0959,0
39711263,0.4890,0.2629,-0.6449,0.5253,-0.3628,-0.5393,-0.0841,0
39711430,0.4887,0.2626,-0.6450,0.5255,-0.3168,-0.5272,-0.0175,0
39711597,0.4884,0.2625,-0.6450,0.5259,-0.4525,-0.4615,-0.0064,0
39711763,0.4885,0.2622,-0.6450,0.5260,-0.4891,-0.4127,0.1215,0
39711930,0.4888,0.2618,-0.6447,0.5262,-0.6348,-0.2303,0.1042,0
39712097,0.4895,0.2611,-0.6445,0.5261,-0.5731,-0.2264,0.0841,0
39712263,0.4900,0.2609,-0.6442,0.5262,-0.2889,-0.4217,0.3171,0
39712430,0.4899,0.2608,-0.6439,0.5266,-0.3675,-0.3737,0.2977,0
39712597,0.4898,0.2606,-0.6439,0.5269,-0.6016,-0.3780,0.2147,0
39712764,0.4898,0.2601,-0.6440,0.5270,-0.4661,-0.4958,0.1083,0
39712930,0.4896,0.2597,-0.6443,0.5270,-0.2956,-0.5982,0.0873,0
39713097,0.4893,0.2592,-0.6445,0.5272,-0.4085,-0.5736,0.1713,0
39713264,0.4893,0.2584,-0.6446,0.5275,-0.3334,-0.5092,0.0961,0
39713430,0.4892,0.2577,-0.6447,0.5278,-0.1010,-0.5019,0.1274,0
39713597,0.4889,0.2572,-0.6449,0.5282,-0.1570,-0.5080,0.0697,0
39713764,0.4885,0.2564,-0.6452,0.5285,-0.4394,-0.4383,0.0475,0
39713930,0.4883,0.2552,-0.6458,0.5285,-0.4424,-0.4907,0.1173,0
39714097,0.4881,0.2541,-0.6463,0.5286,-0.1799,-0.5690,0.1796,0
39714264,0.4878,0.2534,-0.6464,0.5291,-0.1018,-0.6089,0.2646,0
39714430,0.4873,0.2526,-0.6464,0.5300,-0.2552,-0.4960,0.1089,0
39714597,0.4869,0.2515,-0.6466,0.5306,-0.5576,-0.4165,-0.0188,0
39714764,0.4867,0.2499,-0.6472,0.5309,-0.4884,-0.4187,0.1585,0
39714930,0.4864,0.2481,-0.6480,0.5310,-0.2369,-0.5614,0.3112,0
39715097,0.4859,0.2464,-0.6486,0.5316,-0.1827,-0.6334,0.2560,0
39715264,0.4853,0.2449,-0.6490,0.5323,-0.2553,-0.6915,0.1401,0
39715430,0.4846,0.2435,-0.6493,0.5332,-0.3900,-0.6381,0.1000,0
39715597,0.4842,0.2420,-0.6495,0.5340,-0.3187,-0.5408,0.1270,0
39715764,0.4839,0.2404,-0.6495,0.5349,-0.2185,-0.5111,0.2046,0
39715930,0.4835,0.2388,-0.6496,0.5359,-0.4023,-0.4817,0.0872,0
39716097,0.4832,0.2369,-0.6499,0.5367,-0.5650,-0.4015,0.0965,0
39716264,0.4831,0.2348,-0.6503,0.5373,-0.3854,-0.4894,0.2014,0
39716430,0.4827,0.2329,-0.6507,0.5379,-0.2977,-0.4604,0.1795,0
39716597,0.4821,0.2314,-0.6510,0.5387,-0.3680,-0.4213,0.2551,0
39716764,0.4816,0.2300,-0.6510,0.5398,-0.5512,-0.2898,0.1772,0
39716930,0.4813,0.2283,-0.6510,0.5408,-0.5669,-0.3121,0.0774,0
39717097,0.4810,0.2265,-0.6510,0.5418,-0.3084,-0.4452,0.1061,0
39717264,0.4805,0.2246,-0.6511,0.5428,-0.5121,-0.5094,0.2363,0
39717430,0.4804,0.2226,-0.6511,0.5438,-0.7739,-0.3957,-0.0299,0
39717597,0.4806,0.2204,-0.6514,0.5442,-0.7799,-0.4169,0.0341,0
39717764,0.4808,0.2181,-0.6516,0.5447,-0.6747,-0.4103,0.1171,0
39717930,0.4811,0.2159,-0.6516,0.5452,-0.4751,-0.3734,0.2961,0
39718097,0.4814,0.2138,-0.6515,0.5459,-0.3196,-0.3841,0.3451,0
39718264,0.4815,0.2118,-0.6514,0.5468,-0.3056,-0.3032,0.1435,0
39718430,0.4814,0.2100,-0.6515,0.5475,-0.3345,-0.1646,0.0043,0
39718597,0.4812,0.2081,-0.6518,0.5480,-0.3688,-0.1681,0.0782,0
39718764,0.4809,0.2061,-0.6523,0.5484,-0.3488,-0.1368,0.1363,0
39718930,0.4805,0.2043,-0.6529,0.5487,-0.1980,-0.2382,0.2017,0
39719097,0.4798,0.2027,-0.6534,0.5494,-0.1912,-0.1967,0.1785,0
39719264,0.4789,0.2013,-0.6538,0.5502,-0.2760,-0.1700,0.0320,0
39719430,0.4779,0.2000,-0.6543,0.5509,-0.3888,-0.1965,0.1207,0
39719597,0.4770,0.1986,-0.6549,0.5515,-0.4143,-0.2889,0.0530,0
39719764,0.4760,0.1971,-0.6556,0.5521,-0.2414,-0.3958,-0.0066,0
39719930,0.4748,0.1959,-0.6562,0.5528,-0.1606,-0.4333,0.0801,0
39720097,0.4734,0.1948,-0.6570,0.5535,-0.2909,-0.3605,0.1134,0
39720264,0.4720,0.1936,-0.6577,0.5542,-0.4084,-0.2647,0.1067,0
39720430,0.4708,0.1923,-0.6584,0.5549,-0.3237,-0.3621,0.1553,0
39720597,0.4695,0.1911,-0.6590,0.5557,-0.3156,-0.3899,0.1711,0
39720764,0.4683,0.1898,-0.6594,0.5566,-0.4282,-0.3385,0.1585,0
39720930,0.4673,0.1882,-0.6599,0.5574,-0.4006,-0.4231,0.0669,0
39721097,0.4663,0.1866,-0.6605,0.5581,-0.4239,-0.3818,0.0604,0
39721264,0.4652,0.1850,-0.6613,0.5585,-0.5381,-0.4229,0.1830,0
39721430,0.4642,0.1833,-0.6622,0.5590,-0.4968,-0.3301,0.3072,0
39721597,0.4631,0.1816,-0.6629,0.5596,-0.2972,-0.4659,0.3404,0
39721764,0.4618,0.1804,-0.6631,0.5607,-0.2771,-0.5830,0.3309,0
39721930,0.4607,0.1794,-0.6632,0.5620,-0.4359,-0.4947,0.0312,0
39722097,0.4603,0.1780,-0.6632,0.5627,-0.3887,-0.3804,-0.0500,0
39722264,0.4602,0.1771,-0.6633,0.5629,-0.4171,-0.6471,0.2265,0
39722430,0.4602,0.1762,-0.6629,0.5637,-0.7142,-0.4900,0.4597,0
39722597,0.4604,0.1758,-0.6618,0.5650,-0.9656,-0.2590,0.3834,0
39722764,0.4613,0.1759,-0.6597,0.5667,-0.6726,-0.5771,0.5496,0
39722930,0.4611,0.1763,-0.6582,0.5685,-0.1679,-0.5453,0.5450,0
39723097,0.4601,0.1766,-0.6571,0.5703,-0.4881,-0.0904,0.1909,0
39723264,0.4595,0.1758,-0.6565,0.5718,-0.6337,0.3334,-0.3075,0
39723430,0.4595,0.1741,-0.6563,0.5725,-0.3529,0.2259,-0.5366,0
39723597,0.4591,0.1722,-0.6572,0.5724,-0.2390,-0.2402,-0.0353,0
39723764,0.4587,0.1696,-0.6575,0.5732,0.2501,-0.0205,0.0238,0
39723930,0.4569,0.1685,-0.6586,0.5737,0.3036,-0.2295,0.0132,0
39724097,0.4550,0.1671,-0.6588,0.5753,0.2885,-0.1657,0.0321,0
39724264,0.4526,0.1662,-0.6597,0.5765,-0.1943,-0.0332,-0.3067,0
39724430,0.4508,0.1648,-0.6608,0.5770,-0.3582,-0.0366,-0.2945,0
39724597,0.4492,0.1635,-0.6620,0.5773,-0.3731,-0.2592,0.1560,0
39724764,0.4477,0.1618,-0.6630,0.5779,-0.2358,-0.3541,0.3302,0
39724930,0.4457,0.1600,-0.6643,0.5784,-0.5020,-0.3496,0.4013,0
39725097,0.4438,0.1575,-0.6657,0.5789,-0.6387,-0.3263,0.3011,0
39725264,0.4421,0.1551,-0.6669,0.5794,-0.4842,-0.5296,0.3187,0
39725430,0.4408,0.1532,-0.6674,0.5804,-0.3186,-0.7124,0.3968,0
39725597,0.4394,0.1518,-0.6675,0.5816,-0.3294,-0.6030,0.3244,0
39725764,0.4382,0.1505,-0.6673,0.5831,-0.5086,-0.4285,0.0053,0
39725930,0.4372,0.1496,-0.6673,0.5841,-0.3890,-0.4141,-0.0448,0
39726097,0.4364,0.1487,-0.6672,0.5850,-0.3200,-0.3481,-0.0036,0
39726264,0.4355,0.1482,-0.6673,0.5857,-0.4171,-0.1325,0.1557,0
39726430,0.4348,0.1473,-0.6672,0.5866,-0.2823,0.0173,-0.0166,0
39726597,0.4338,0.1465,-0.6676,0.5871,-0.0092,0.0462,0.0307,0
39726764,0.4323,0.1454,-0.6681,0.5879,0.0681,-0.0798,0.1460,0
39726930,0.4307,0.1440,-0.6687,0.5887,0.0470,-0.0239,-0.0712,0
39727097,0.4289,0.1428,-0.6694,0.5895,0.0024,-0.1387,-0.2474,0
39727264,0.4271,0.1416,-0.6703,0.5902,-0.1614,-0.1878,-0.1247,0
39727430,0.4253,0.1404,-0.6710,0.5909,-0.2327,-0.2406,-0.0147,0
39727597,0.4236,0.1394,-0.6717,0.5916,-0.3833,-0.2503,0.1012,0
39727764,0.4220,0.1380,-0.6724,0.5922,-0.4916,-0.2114,0.0319,0
39727930,0.4206,0.1366,-0.6730,0.5929,-0.4938,-0.2765,0.0750,0
39728097,0.4191,0.1355,-0.6734,0.5938,-0.2371,-0.4199,0.1749,0
39728264,0.4173,0.1354,-0.6735,0.5949,-0.2539,-0.6041,0.4689,0
39728430,0.4155,0.1356,-0.6729,0.5968,-0.3698,-0.4052,0.4573,0
39728597,0.4135,0.1358,-0.6728,0.5983,-0.5860,-0.3011,-0.0322,0
39728764,0.4118,0.1355,-0.6731,0.5991,-0.5615,-0.1112,-0.0636,0
39728930,0.4103,0.1352,-0.6736,0.5997,-0.0622,-0.2861,0.2459,0
39729097,0.4086,0.1351,-0.6731,0.6014,-0.0462,-0.1782,0.3143,0
39729264,0.4069,0.1352,-0.6726,0.6031,-0.3304,0.0818,-0.0725,0
39729431,0.4056,0.1352,-0.6722,0.6045,-0.4852,0.1594,-0.1885,0
39729597,0.4046,0.1351,-0.6720,0.6054,-0.4999,0.0449,-0.1121,0
39729764,0.4038,0.1345,-0.6720,0.6060,-0.4264,0.0536,-0.2760,0
39729931,0.4029,0.1339,-0.6726,0.6061,-0.4888,0.0227,-0.3055,0
39730097,0.4024,0.1332,-0.6730,0.6062,-0.3698,-0.0837,-0.0737,0
39730264,0.4020,0.1326,-0.6732,0.6064,-0.1284,-0.3020,0.1109,0
39730431,0.4013,0.1323,-0.6731,0.6069,-0.2280,-0.1513,0.1927,0
39730597,0.4006,0.1317,-0.6732,0.6074,-0.4222,-0.1489,0.0974,0
39730764,0.3999,0.1304,-0.6738,0.6075,-0.1290,-0.2040,-0.0448,0
39730931,0.3989,0.1291,-0.6747,0.6075,-0.0410,-0.2201,0.1005,0
39731097,0.3977,0.1280,-0.6756,0.6075,0.0219,-0.2670,0.4313,0
39731264,0.3965,0.1266,-0.6762,0.6078,-0.0868,-0.3942,0.6023,0
39731431,0.3952,0.1251,-0.6767,0.6085,-0.0668,-0.3175,0.2536,0
39731597,0.3937,0.1241,-0.6773,0.6090,0.0455,-0.3378,0.2720,0
39731764,0.3919,0.1229,-0.6777,0.6099,0.2476,-0.4164,0.3593,0
39731931,0.3897,0.1220,-0.6779,0.6113,0.1903,-0.4028,0.2067,0
39732097,0.3875,0.1217,-0.6778,0.6129,-0.0615,-0.3007,0.0791,0
39732264,0.3857,0.1217,-0.6773,0.6146,-0.1964,-0.3292,-0.0606,0
39732431,0.3839,0.1219,-0.6768,0.6162,-0.3268,-0.2860,-0.3377,0
39732597,0.3824,0.1220,-0.6767,0.6172,-0.6708,-0.1916,-0.4497,0
39732764,0.3811,0.1220,-0.6772,0.6175,-0.5710,-0.1071,-0.2869,0
39732931,0.3799,0.1221,-0.6776,0.6178,-0.5133,-0.0872,0.2147,0
39733097,0.3789,0.1224,-0.6773,0.6186,-0.1350,-0.1236,0.2944,0
39733264,0.3778,0.1227,-0.6768,0.6198,-0.2632,0.0703,-0.1463,0
39733431,0.3767,0.1227,-0.6772,0.6200,-0.7992,0.3423,-0.3961,0
39733597,0.3761,0.1221,-0.6789,0.6187,-0.7008,0.2160,-0.0473,0
39733764,0.3753,0.1211,-0.6807,0.6174,-0.1338,-0.0234,0.4524,0
39733931,0.3741,0.1203,-0.6820,0.6169,0.0087,-0.1496,0.8162,0
39734097,0.3726,0.1195,-0.6823,0.6175,0.1225,-0.2391,0.7436,0
39734264,0.3710,0.1185,-0.6821,0.6189,0.2641,-0.2183,0.1381,0
39734431,0.3691,0.1179,-0.6821,0.6201,0.0996,-0.1469,-0.2406,0
39734597,0.3672,0.1171,-0.6829,0.6206,-0.0230,-0.1284,-0.1870,0
39734764,0.3652,0.1162,-0.6840,0.6208,0.1571,-0.1756,-0.0315,0
39734931,0.3629,0.1158,-0.6848,0.6213,0.3284,-0.2040,0.0620,0
39735097,0.3604,0.1160,-0.6849,0.6225,0.1840,-0.2406,-0.0679,0
39735264,0.3580,0.1167,-0.6848,0.6239,-0.1075,0.0415,-0.2554,0
39735431,0.3557,0.1175,-0.6850,0.6248,-0.2521,0.1789,-0.1669,0
39735597,0.3533,0.1181,-0.6857,0.6253,-0.2666,0.1489,-0.0179,0
39735764,0.3510,0.1180,-0.6866,0.6257,-0.3272,-0.0649,-0.0020,0
39735931,0.3486,0.1177,-0.6876,0.6259,-0.1919,-0.1116,0.0037,0
39736097,0.3465,0.1176,-0.6884,0.6262,-0.2966,-0.3035,0.0491,0
39736264,0.3446,0.1176,-0.6892,0.6265,-0.4729,-0.2553,0.0689,0
39736431,0.3429,0.1175,-0.6898,0.6267,-0.4474,-0.3599,0.1213,0
39736597,0.3414,0.1174,-0.6903,0.6270,-0.3566,-0.3207,0.2425,0
39736764,0.6762,-0.6606,-0.2333,-0.2280,0.2586,0.4334,0.3526,0
39736931,0.6766,-0.6607,-0.2331,-0.2267,0.2662,0.3806,0.2026,0
39737097,0.6769,-0.6608,-0.2328,-0.2255,0.3011,0.3287,0.0889,0
39737264,0.6775,-0.6606,-0.2327,-0.2246,0.1692,0.2794,0.0394,0
39737431,0.6781,-0.6603,-0.2327,-0.2238,-0.0038,0.2724,0.0133,0
39737597,0.6788,-0.6598,-0.2328,-0.2228,0.0654,0.0149,-0.1289,0
39737764,0.6789,-0.6601,-0.2330,-0.2218,0.3048,-0.0743,-0.2299,0
39737931,0.6787,-0.6606,-0.2328,-0.2210,0.2692,-0.0304,-0.0492,0
39738097,0.6786,-0.6610,-0.2325,-0.2202,0.0545,-0.0228,0.1211,0
39738264,0.6791,-0.6610,-0.2322,-0.2193,-0.1569,0.0501,0.0344,0
39738431,0.6795,-0.6610,-0.2320,-0.2180,0.0992,-0.0157,-0.1122,0
39738597,0.6797,-0.6613,-0.2317,-0.2170,0.1921,0.0126,-0.1682,0
39738764,0.6795,-0.6619,-0.2313,-0.2161,0.0419,0.0268,-0.0299,0
39738931,0.6795,-0.6622,-0.2314,-0.2150,0.0178,0.1863,0.2222,0
39739097,0.6798,-0.6621,-0.2315,-0.2140,-0.0151,0.2266,0.3189,0
39739264,0.6805,-0.6618,-0.2316,-0.2128,0.0642,0.1221,0.0169,0
39739431,0.6807,-0.6619,-0.2320,-0.2116,0.2105,0.1848,-0.0177,0
39739597,0.6809,-0.6620,-0.2321,-0.2105,0.1520,0.2358,0.0820,0
39739764,0.6810,-0.6621,-0.2322,-0.2095,-0.0126,0.1315,0.0779,0
39739931,0.6812,-0.6622,-0.2323,-0.2084,0.0158,0.0957,-0.0152,0
39740097,0.6811,-0.6627,-0.2322,-0.2073,0.1931,0.0755,-0.0985,0
39740264,0.6807,-0.6636,-0.2317,-0.2063,-0.0239,-0.0027,-0.0075,0
39740431,0.6806,-0.6643,-0.2316,-0.2049,-0.1961,-0.0232,0.2902,0
39740597,0.6811,-0.6643,-0.2313,-0.2034,-0.2789,0.0379,0.2710,0
39740764,0.6819,-0.6640,-0.2311,-0.2017,-0.0238,-0.0376,-0.1211,0
39740931,0.6821,-0.6643,-0.2310,-0.2002,0.1417,-0.0130,-0.3420,0
39741097,0.6817,-0.6652,-0.2308,-0.1987,0.0450,0.0171,-0.2381,0
39741264,0.6812,-0.6662,-0.2310,-0.1970,-0.0338,0.1401,0.1593,0
39741431,0.6815,-0.6662,-0.2311,-0.1956,-0.0511,0.1822,0.3498,0
39741597,0.6823,-0.6658,-0.2315,-0.1939,0.0066,0.1468,0.1112,0
39741764,0.6829,-0.6656,-0.2319,-0.1923,0.2397,-0.1008,-0.1520,0
39741931,0.6827,-0.6661,-0.2323,-0.1905,0.1777,-0.0943,-0.0433,0
39742097,0.6821,-0.6672,-0.2323,-0.1885,0.1925,-0.0924,0.2204,0
39742264,0.6817,-0.6683,-0.2321,-0.1865,-0.0313,-0.0226,0.3625,0
39742431,0.6821,-0.6687,-0.2318,-0.1841,-0.1827,0.0781,0.3574,0
39742597,0.6829,-0.6686,-0.2316,-0.1817,-0.1138,0.0647,0.0413,0
39742764,0.6836,-0.6687,-0.2313,-0.1793,-0.0657,-0.0055,-0.3592,0
39742931,0.6835,-0.6695,-0.2310,-0.1769,0.0848,0.0166,-0.3689,0
39743097,0.6830,-0.6707,-0.2306,-0.1746,0.0415,0.0632,-0.0585,0
39743264,0.6828,-0.6716,-0.2303,-0.1726,-0.0664,0.1630,0.2197,0
39743431,0.6833,-0.6717,-0.2301,-0.1704,-0.0735,0.0801,0.1654,0
39743597,0.6837,-0.6719,-0.2302,-0.1680,0.0522,0.0255,-0.0229,0
39743764,0.6838,-0.6724,-0.2300,-0.1656,0.1627,-0.0352,-0.1589,0
39743931,0.6837,-0.6732,-0.2298,-0.1632,0.1199,-0.0313,-0.0399,0
39744097,0.6836,-0.6738,-0.2296,-0.1610,0.0809,0.0848,0.0338,0
39744264,0.6838,-0.6742,-0.2294,-0.1589,0.0700,0.1166,-0.1406,0
39744431,0.6839,-0.6746,-0.2293,-0.1570,0.1038,0.0935,-0.2826,0
39744597,0.6838,-0.6751,-0.2292,-0.1553,0.0806,0.0478,-0.1748,0
39744764,0.6835,-0.6758,-0.2291,-0.1537,0.0870,-0.0211,-0.0715,0
39744931,0.6831,-0.6766,-0.2291,-0.1521,0.0747,0.0195,0.0244,0
39745097,0.6828,-0.6773,-0.2288,-0.1506,0.0055,0.0127,-0.0207,0
39745264,0.6825,-0.6780,-0.2286,-0.1490,-0.0597,0.0344,-0.0136,0
39745431,0.6823,-0.6786,-0.2285,-0.1474,-0.0862,0.0112,0.0664,0
39745597,0.6822,-0.6791,-0.2284,-0.1457,-0.0641,-0.0561,0.0488,0
39745764,0.6820,-0.6799,-0.2280,-0.1438,0.0086,-0.1143,0.0000,0
39745931,0.6816,-0.6808,-0.2275,-0.1420,-0.0318,-0.1138,0.0039,0
39746098,0.6815,-0.6815,-0.2270,-0.1401,-0.1833,0.0652,0.1227,0
39746264,0.6818,-0.6817,-0.2266,-0.1382,-0.1185,0.0797,0.0489,0
39746431,0.6821,-0.6819,-0.2263,-0.1363,-0.0051,0.0692,-0.1538,0
39746598,0.6821,-0.6823,-0.2261,-0.1345,0.0416,-0.0201,-0.1415,0
39746764,0.6820,-0.6828,-0.2260,-0.1326,0.1202,0.0469,-0.0176,0
39746931,0.6820,-0.6833,-0.2256,-0.1308,0.1402,-0.0188,-0.0022,0
39747098,0.6819,-0.6838,-0.2254,-0.1290,0.0557,0.0009,-0.0059,0
39747264,0.6820,-0.6840,-0.2251,-0.1275,0.0267,0.1179,-0.0263,0
39747431,0.6824,-0.6840,-0.2249,-0.1260,0.0268,0.0819,-0.2042,0
39747598,0.6824,-0.6843,-0.2248,-0.1246,0.1398,0.0835,-0.3623,0
39747764,0.6822,-0.6847,-0.2248,-0.1236,0.1777,-0.0131,-0.2467,0
39747931,0.6819,-0.6851,-0.2248,-0.1227,0.0778,-0.0442,-0.0834,0
39748098,0.6817,-0.6855,-0.2249,-0.1217,0.0529,-0.0898,0.1320,0
39748264,0.6818,-0.6856,-0.2246,-0.1208,0.0962,-0.0733,0.0212,0
39748431,0.6819,-0.6857,-0.2243,-0.1201,0.0436,-0.1247,-0.1958,0
39748598,0.6817,-0.6861,-0.2243,-0.1191,0.0357,-0.0918,-0.1973,0
39748764,0.6814,-0.6866,-0.2242,-0.1182,0.0103,-0.1216,-0.0289,0
39748931,0.6813,-0.6870,-0.2239,-0.1172,-0.0710,-0.1169,0.0611,0
39749098,0.6812,-0.6873,-0.2238,-0.1160,-0.0436,-0.0711,0.0189,0
39749264,0.6812,-0.6876,-0.2236,-0.1148,0.0002,-0.1009,-0.1356,0
39749431,0.6811,-0.6879,-0.2236,-0.1136,-0.0442,-0.1131,-0.0719,0
39749598,0.6812,-0.6880,-0.2237,-0.1124,-0.0405,-0.0924,0.0239,0
39749764,0.6815,-0.6879,-0.2237,-0.1113,-0.0434,-0.0640,-0.0389,0
39749931,0.6816,-0.6879,-0.2238,-0.1102,0.0288,-0.0162,-0.2368,0
39750098,0.6814,-0.6882,-0.2239,-0.1094,0.0664,-0.0297,-0.3015,0
39750264,0.6809,-0.6888,-0.2240,-0.1085,-0.0357,-0.1176,-0.1724,0
39750431,0.6806,-0.6891,-0.2244,-0.1075,-0.0146,-0.1323,0.1324,0
39750598,0.6809,-0.6890,-0.2246,-0.1064,-0.0796,-0.0915,0.1697,0
39750764,0.6814,-0.6887,-0.2244,-0.1053,-0.1211,-0.1157,-0.1411,0
39750931,0.6816,-0.6887,-0.2243,-0.1041,-0.0494,-0.1364,-0.3452,0
39751098,0.6814,-0.6891,-0.2243,-0.1030,-0.0004,-0.0969,-0.2365,0
39751264,0.6812,-0.6894,-0.2243,-0.1020,0.0304,-0.0746,-0.0587,0
39751431,0.6811,-0.6896,-0.2242,-0.1012,-0.1021,-0.0871,0.0511,0
39751598,0.6813,-0.6897,-0.2240,-0.1001,-0.0837,-0.0609,-0.0426,0
39751764,0.6815,-0.6897,-0.2238,-0.0991,0.0386,-0.1031,-0.1355,0
39751931,0.6814,-0.6899,-0.2237,-0.0982,0.1065,-0.0922,-0.1088,0
39752098,0.6812,-0.6903,-0.2236,-0.0972,0.0578,-0.0692,-0.0284,0
39752264,0.6810,-0.6906,-0.2235,-0.0962,0.0568,-0.0652,0.0557,0
39752431,0.6812,-0.6906,-0.2235,-0.0951,-0.0177,-0.0923,0.1033,0
39752598,0.6817,-0.6903,-0.2235,-0.0942,-0.0423,-0.0845,0.0999,0
39752764,0.6822,-0.6899,-0.2235,-0.0932,0.0518,-0.1408,-0.1506,0
39752931,0.6823,-0.6899,-0.2235,-0.0922,0.1049,-0.1637,-0.3724,0
39753098,0.6818,-0.6906,-0.2233,-0.0914,0.0435,-0.1663,-0.2631,0
39753264,0.6814,-0.6911,-0.2233,-0.0906,-0.0324,-0.1101,0.0617,0
39753431,0.6815,-0.6911,-0.2232,-0.0899,-0.1016,-0.0337,0.1528,0
39753598,0.6820,-0.6908,-0.2230,-0.0892,-0.0323,-0.0920,-0.0782,0
39753764,0.6822,-0.6907,-0.2229,-0.0885,-0.0073,-0.0896,-0.3433,0
39753931,0.6819,-0.6912,-0.2228,-0.0879,0.0548,-0.1907,-0.2660,0
39754098,0.6812,-0.6919,-0.2229,-0.0872,-0.0455,-0.2038,0.0820,0
39754264,0.6811,-0.6921,-0.2226,-0.0863,-0.0802,-0.1953,0.2001,0
39754431,0.6813,-0.6922,-0.2224,-0.0852,-0.1040,-0.2292,0.0972,0
39754598,0.6815,-0.6921,-0.2223,-0.0841,-0.0651,-0.2006,-0.0140,0
39754764,0.6817,-0.6922,-0.2220,-0.0829,-0.0879,-0.2120,-0.1006,0
39754931,0.6818,-0.6923,-0.2219,-0.0816,-0.1217,-0.2272,-0.1390,0
39755098,0.6817,-0.6926,-0.2218,-0.0803,-0.0537,-0.1987,-0.0827,0
39755264,0.6817,-0.6927,-0.2217,-0.0791,0.0162,-0.1665,-0.0115,0
39755431,0.6819,-0.6926,-0.2217,-0.0779,-0.0585,-0.0729,-0.0639,0
39755598,0.6823,-0.6924,-0.2215,-0.0768,-0.0739,-0.1677,-0.2259,0
39755764,0.6825,-0.6924,-0.2217,-0.0756,-0.0439,-0.2070,-0.1782,0
39755931,0.6826,-0.6923,-0.2218,-0.0744,-0.0081,-0.1675,-0.0596,0
39756098,0.6829,-0.6922,-0.2217,-0.0731,0.0498,-0.2448,-0.0909,0
39756264,0.6828,-0.6924,-0.2216,-0.0719,0.0746,-0.3029,-0.0753,0
39756431,0.6827,-0.6927,-0.2214,-0.0706,0.0691,-0.2393,0.0338,0
39756598,0.6827,-0.6930,-0.2211,-0.0693,-0.0052,-0.1642,0.0237,0
39756764,0.6828,-0.6931,-0.2209,-0.0678,-0.0565,-0.1712,-0.0065,0
39756931,0.6829,-0.6933,-0.2207,-0.0664,-0.0489,-0.2309,-0.0125,0
39757098,0.6829,-0.6934,-0.2205,-0.0649,-0.0600,-0.2178,-0.0075,0
39757264,0.6830,-0.6935,-0.2203,-0.0634,-0.0072,-0.2191,-0.0282,0
39757431,0.6831,-0.6937,-0.2200,-0.0620,-0.0187,-0.2188,-0.0873,0
39757598,0.6829,-0.6940,-0.2198,-0.0605,-0.0322,-0.2276,-0.1081,0
39757764,0.6827,-0.6943,-0.2197,-0.0590,-0.0261,-0.2234,-0.0775,0
39757931,0.6827,-0.6946,-0.2195,-0.0573,-0.0445,-0.2136,-0.0142,0
39758098,0.6827,-0.6948,-0.2193,-0.0556,-0.0705,-0.2573,0.0189,0
39758264,0.6830,-0.6947,-0.2191,-0.0538,0.0124,-0.2654,0.0003,0
39758431,0.6832,-0.6947,-0.2188,-0.0520,0.0276,-0.2317,-0.1547,0
39758598,0.6833,-0.6949,-0.2183,-0.0502,0.0842,-0.3126,-0.2959,0
39758764,0.6830,-0.6953,-0.2182,-0.0484,0.0207,-0.2190,-0.1758,0
39758931,0.6829,-0.6957,-0.2180,-0.0467,-0.0561,-0.1757,0.0546,0
39759098,0.6832,-0.6956,-0.2177,-0.0450,-0.0207,-0.2296,-0.0333,0
39759264,0.6834,-0.6955,-0.2177,-0.0433,0.0537,-0.1626,-0.1793,0
39759431,0.6836,-0.6955,-0.2174,-0.0417,0.0412,-0.2395,-0.2974,0
39759598,0.6834,-0.6957,-0.2175,-0.0401,-0.0485,-0.2327,-0.2163,0
39759764,0.6835,-0.6957,-0.2176,-0.0386,-0.0182,-0.2413,-0.0863,0
39759931,0.6837,-0.6956,-0.2176,-0.0371,0.0610,-0.2238,-0.2097,0
39760098,0.6837,-0.6957,-0.2176,-0.0359,0.1186,-0.2432,-0.3333,0
39760264,0.6835,-0.6959,-0.2176,-0.0349,0.1272,-0.1772,-0.1950,0
39760431,0.6834,-0.6960,-0.2175,-0.0340,0.0170,-0.2323,-0.0373,0
39760598,0.6836,-0.6959,-0.2176,-0.0330,-0.0512,-0.2084,-0.0002,0
39760764,0.6840,-0.6956,-0.2175,-0.0321,0.0566,-0.2120,-0.1079,0
39760931,0.6843,-0.6953,-0.2174,-0.0312,0.0257,-0.2436,-0.2284,0
39761098,0.6845,-0.6952,-0.2175,-0.0304,0.0885,-0.2656,-0.1658,0
39761264,0.6846,-0.6951,-0.2175,-0.0297,0.0583,-0.2409,-0.0943,0
39761431,0.6849,-0.6949,-0.2174,-0.0291,0.0406,-0.2660,-0.1523,0
39761598,0.6850,-0.6948,-0.2173,-0.0284,-0.0151,-0.2901,-0.1852,0
39761764,0.6850,-0.6949,-0.2172,-0.0277,0.0006,-0.2928,-0.1644,0
39761931,0.6850,-0.6950,-0.2169,-0.0269,0.0401,-0.2947,-0.1935,0
39762098,0.6848,-0.6953,-0.2165,-0.0262,-0.0115,-0.2843,-0.2312,0
39762264,0.6847,-0.6956,-0.2162,-0.0256,-0.0210,-0.2258,-0.1418,0
39762431,0.6846,-0.6957,-0.2160,-0.0250,-0.0324,-0.2213,-0.0470,0
39762598,0.6847,-0.6957,-0.2160,-0.0244,-0.0359,-0.2367,-0.0899,0
39762765,0.6848,-0.6956,-0.2160,-0.0237,0.0342,-0.2973,0.0129,0
39762931,0.6849,-0.6955,-0.2159,-0.0231,-0.0429,-0.2745,0.0128,0
39763098,0.6851,-0.6954,-0.2158,-0.0224,-0.0030,-0.3188,-0.0819,0
39763265,0.6851,-0.6954,-0.2157,-0.0218,0.0083,-0.2414,-0.1162,0
39763431,0.6852,-0.6954,-0.2154,-0.0213,-0.0329,-0.2836,-0.1785,0
39763598,0.6852,-0.6954,-0.2154,-0.0209,-0.0320,-0.2484,-0.0816,0
39763765,0.6855,-0.6953,-0.2152,-0.0204,-0.0426,-0.2665,-0.0350,0
39763931,0.6859,-0.6949,-0.2150,-0.0198,-0.1008,-0.2574,-0.1013,0
39764098,0.6863,-0.6946,-0.2149,-0.0192,-0.0140,-0.2793,-0.2458,0
39764265,0.6865,-0.6944,-0.2150,-0.0188,-0.0406,-0.2968,-0.3087,0
39764431,0.6866,-0.6943,-0.2151,-0.0184,-0.0380,-0.3410,-0.2689,0
39764598,0.6866,-0.6942,-0.2152,-0.0182,0.0357,-0.3558,-0.2938,0
39764765,0.6866,-0.6941,-0.2154,-0.0181,-0.0112,-0.2730,-0.2840,0
39764931,0.6868,-0.6939,-0.2155,-0.0181,-0.0358,-0.2834,-0.1912,0
39765098,0.6870,-0.6936,-0.2157,-0.0182,-0.0301,-0.3256,-0.1842,0
39765265,0.6873,-0.6933,-0.2159,-0.0183,0.0277,-0.3795,-0.2358,0
39765431,0.6874,-0.6931,-0.2162,-0.0184,0.1070,-0.4097,-0.1842,0
39765598,0.6873,-0.6932,-0.2164,-0.0184,0.1187,-0.4621,-0.0832,0
39765765,0.6871,-0.6933,-0.2165,-0.0183,0.0442,-0.4509,0.0101,0
39765931,0.6870,-0.6934,-0.2166,-0.0179,-0.0002,-0.4044,0.0697,0
39766098,0.6870,-0.6934,-0.2166,-0.0175,0.0518,-0.3069,0.0323,0
39766265,0.6870,-0.6934,-0.2166,-0.0172,-0.0358,-0.3049,-0.1139,0
39766431,0.6869,-0.6935,-0.2169,-0.0168,-0.0290,-0.2379,-0.1193,0
39766598,0.6868,-0.6935,-0.2171,-0.0164,-0.0212,-0.1739,-0.0959,0
39766765,0.6868,-0.6934,-0.2173,-0.0161,-0.0314,-0.1902,-0.0811,0
39766931,0.6870,-0.6931,-0.2176,-0.0159,0.0016,-0.1921,-0.0836,0
39767098,0.6874,-0.6926,-0.2180,-0.0160,0.0273,-0.1988,-0.2054,0
39767265,0.6877,-0.6922,-0.2184,-0.0162,0.0558,-0.1553,-0.3316,0
39767431,0.6880,-0.6918,-0.2187,-0.0166,0.0294,-0.2404,-0.3533,0
39767598,0.6881,-0.6916,-0.2191,-0.0172,0.0188,-0.2451,-0.3142,0
39767765,0.6883,-0.6912,-0.2194,-0.0182,0.0975,-0.1880,-0.2679,0
39767931,0.6888,-0.6905,-0.2199,-0.0196,0.1668,-0.1203,-0.3070,0
39768098,0.6895,-0.6896,-0.2205,-0.0217,0.1591,0.0406,-0.4691,0
39768265,0.6902,-0.6885,-0.2213,-0.0245,0.2165,0.0113,-0.6397,0
39768431,0.6903,-0.6878,-0.2228,-0.0279,0.3799,-0.0843,-0.4421,0
39768598,0.6903,-0.6872,-0.2243,-0.0316,0.4767,-0.1132,-0.0439,0
39768765,0.6908,-0.6861,-0.2253,-0.0353,0.4146,-0.2234,0.0319,0
39768931,0.6917,-0.6847,-0.2263,-0.0391,0.2809,-0.2556,0.0233,0
39769098,0.6928,-0.6831,-0.2271,-0.0429,0.1737,-0.2758,-0.1530,0
39769265,0.6938,-0.6815,-0.2279,-0.0468,0.1487,-0.4731,-0.2990,0
39769431,0.6945,-0.6803,-0.2288,-0.0508,0.1828,-0.4996,-0.0943,0
39769598,0.6952,-0.6790,-0.2294,-0.0546,0.1532,-0.5560,-0.0761,0
39769765,0.6958,-0.6779,-0.2301,-0.0583,0.0360,-0.5106,-0.1307,0
39769931,0.6965,-0.6767,-0.2307,-0.0620,0.0303,-0.4356,-0.0925,0
39770098,0.6971,-0.6755,-0.2314,-0.0657,0.0065,-0.4109,-0.0999,0
39770265,0.6976,-0.6742,-0.2322,-0.0694,0.0146,-0.4426,-0.1166,0
39770431,0.6983,-0.6728,-0.2332,-0.0731,-0.0058,-0.4708,-0.0621,0
39770598,0.6990,-0.6713,-0.2343,-0.0766,0.1157,-0.2760,-0.0354,0
39770765,0.6998,-0.6697,-0.2352,-0.0802,0.1030,-0.1934,-0.2875,0
39770931,0.7007,-0.6678,-0.2364,-0.0843,0.1243,-0.2416,-0.3469,0
39771098,0.7016,-0.6658,-0.2379,-0.0887,0.2860,-0.2812,-0.3343,0
39771265,0.7023,-0.6639,-0.2394,-0.0936,0.5481,-0.2033,-0.2991,0
39771431,0.7026,-0.6623,-0.2407,-0.0988,0.6479,-0.3247,-0.2404,0
39771598,0.7027,-0.6609,-0.2420,-0.1042,0.5033,-0.2427,-0.1295,0
39771765,0.7032,-0.6590,-0.2433,-0.1101,0.4666,-0.2481,0.0232,0
39771931,0.7039,-0.6566,-0.2447,-0.1163,0.3404,-0.1794,0.0772,0
39772098,0.7045,-0.6542,-0.2463,-0.1225,0.4157,-0.1664,-0.1873,0
39772265,0.7046,-0.6521,-0.2483,-0.1289,0.3319,-0.2744,-0.1265,0
39772431,0.7045,-0.6502,-0.2503,-0.1353,0.2687,-0.2977,0.2922,0
39772598,0.7048,-0.6478,-0.2521,-0.1415,0.1546,-0.2616,0.2710,0
39772765,0.7053,-0.6452,-0.2539,-0.1478,0.0718,-0.3496,0.1866,0
39772931,0.7058,-0.6424,-0.2557,-0.1540,-0.0407,-0.3368,0.3201,0
39773098,0.7065,-0.6396,-0.2570,-0.1601,0.0405,-0.4337,0.1699,0
39773265,0.7067,-0.6374,-0.2585,-0.1659,0.0444,-0.5500,0.2598,0
39773431,0.7066,-0.6355,-0.2597,-0.1714,0.2435,-0.5153,0.8192,0
39773598,0.7071,-0.6335,-0.2598,-0.1765,0.1105,-0.2724,0.8132,0
39773765,0.7084,-0.6310,-0.2593,-0.1813,-0.0373,-0.2673,0.2473,0
39773931,0.7094,-0.6283,-0.2595,-0.1862,-0.1236,-0.0312,-0.1607,0
39774098,0.7109,-0.6248,-0.2602,-0.1914,0.0636,-0.3316,-0.2923,0
39774265,0.7114,-0.6217,-0.2620,-0.1966,0.2909,-0.3676,-0.0120,0
39774431,0.7121,-0.6187,-0.2636,-0.2017,0.4375,-0.5021,0.1312,0
39774598,0.7126,-0.6157,-0.2654,-0.2066,0.2949,-0.5115,0.0712,0
39774765,0.7132,-0.6124,-0.2673,-0.2116,0.2240,-0.6948,0.0109,0
39774931,0.7142,-0.6087,-0.2694,-0.2167,0.0899,-0.7200,-0.1664,0
39775098,0.7152,-0.6045,-0.2717,-0.2218,0.1881,-0.6320,-0.2491,0
39775265,0.7157,-0.6012,-0.2734,-0.2271,0.3610,-0.7669,-0.4050,0
39775431,0.7154,-0.5986,-0.2754,-0.2324,0.1424,-0.7951,-0.1644,0
39775598,0.7154,-0.5959,-0.2771,-0.2373,-0.0529,-0.6051,0.1957,0
39775765,0.7157,-0.5931,-0.2784,-0.2419,0.0741,-0.6146,0.0019,0
39775931,0.7155,-0.5907,-0.2803,-0.2461,-0.0818,-0.5475,0.0534,0
39776098,0.7151,-0.5886,-0.2822,-0.2501,-0.0123,-0.5901,0.3151,0
39776265,0.7151,-0.5861,-0.2841,-0.2538,0.1421,-0.5224,0.3126,0
39776431,0.7149,-0.5838,-0.2861,-0.2575,0.3491,-0.4543,0.1555,0
39776598,0.7145,-0.5815,-0.2881,-0.2614,0.3608,-0.3191,0.1194,0
39776765,0.7140,-0.5793,-0.2902,-0.2654,0.3107,-0.2377,0.3116,0
39776931,0.7135,-0.5771,-0.2921,-0.2695,0.4287,-0.3578,0.2572,0
39777098,0.7125,-0.5753,-0.2941,-0.2737,0.2713,-0.3933,0.4809,0
39777265,0.7123,-0.5728,-0.2957,-0.2775,-0.0161,-0.4513,0.4780,0
39777431,0.7120,-0.5704,-0.2977,-0.2812,0.0497,-0.5025,0.1908,0
39777598,0.7119,-0.5677,-0.2996,-0.2849,0.3255,-0.4756,0.0697,0
39777765,0.7114,-0.5653,-0.3014,-0.2889,0.4361,-0.4876,0.0290,0
39777931,0.7104,-0.5636,-0.3029,-0.2930,0.4534,-0.5111,0.1440,0
39778098,0.7093,-0.5620,-0.3045,-0.2971,0.0526,-0.5075,0.2801,0
39778265,0.7088,-0.5598,-0.3064,-0.3007,-0.0683,-0.5893,0.3384,0
39778431,0.7084,-0.5573,-0.3084,-0.3040,0.1296,-0.5006,0.1262,0
39778598,0.7080,-0.5550,-0.3102,-0.3074,0.2697,-0.4997,-0.0778,0
39778765,0.7073,-0.5530,-0.3118,-0.3110,0.0451,-0.4638,0.0123,0
39778931,0.7067,-0.5507,-0.3136,-0.3146,-0.0489,-0.5460,0.0874,0
39779098,0.7060,-0.5485,-0.3156,-0.3181,-0.0264,-0.4725,-0.0399,0
39779265,0.7054,-0.5460,-0.3175,-0.3216,0.1609,-0.4835,-0.1145,0
39779432,0.7045,-0.5442,-0.3192,-0.3250,0.1489,-0.5144,-0.0023,0
39779598,0.7035,-0.5425,-0.3208,-0.3284,0.0888,-0.6699,0.1812,0
39779765,0.7026,-0.5410,-0.3222,-0.3313,-0.3519,-0.6606,0.3885,0
39779932,0.7024,-0.5391,-0.3233,-0.3337,-0.2814,-0.7089,0.1305,0
39780098,0.7019,-0.5379,-0.3244,-0.3359,-0.0491,-0.5523,-0.1825,0
39780265,0.7008,-0.5372,-0.3252,-0.3384,0.0215,-0.4898,0.0131,0
39780432,0.6997,-0.5367,-0.3259,-0.3408,-0.0736,-0.3983,0.2345,0
39780598,0.6988,-0.5358,-0.3269,-0.3432,-0.0827,-0.3104,0.3260,0
39780765,0.6982,-0.5344,-0.3281,-0.3454,0.0058,-0.1798,0.2218,0
39780932,0.6977,-0.5329,-0.3295,-0.3475,0.0546,-0.1880,0.2336,0
39781098,0.6974,-0.5310,-0.3310,-0.3496,0.0341,-0.2539,0.2375,0
39781265,0.6972,-0.5290,-0.3324,-0.3516,0.1821,-0.3090,0.1374,0
39781432,0.6967,-0.5274,-0.3336,-0.3538,0.3084,-0.4001,0.0347,0
39781598,0.6960,-0.5262,-0.3346,-0.3560,0.2339,-0.4661,0.2137,0
39781765,0.6954,-0.5250,-0.3353,-0.3583,0.0414,-0.5574,0.2337,0
39781932,0.6949,-0.5239,-0.3359,-0.3604,-0.1710,-0.4880,0.1070,0
39782098,0.6944,-0.5227,-0.3367,-0.3622,-0.0900,-0.5787,0.0864,0
39782265,0.6939,-0.5218,-0.3372,-0.3640,-0.0909,-0.7196,0.0026,0
39782432,0.6934,-0.5213,-0.3375,-0.3656,-0.0545,-0.7090,0.0222,0
39782598,0.6926,-0.5213,-0.3374,-0.3670,-0.2635,-0.7453,0.1472,0
39782765,0.6921,-0.5212,-0.3373,-0.3681,-0.5665,-0.5367,0.1804,0
39782932,0.6918,-0.5212,-0.3375,-0.3686,-0.3086,-0.5119,-0.0729,0
39783098,0.6911,-0.5215,-0.3380,-0.3690,-0.1449,-0.4722,0.0187,0
39783265,0.6906,-0.5218,-0.3385,-0.3691,-0.2643,-0.4691,0.3736,0
39783432,0.6905,-0.5220,-0.3388,-0.3688,-0.2743,-0.4838,0.2737,0
39783598,0.6904,-0.5222,-0.3392,-0.3682,-0.1904,-0.3446,0.3054,0
39783765,0.6906,-0.5224,-0.3393,-0.3674,-0.0716,-0.3040,0.2711,0
39783932,0.6907,-0.5228,-0.3395,-0.3665,0.0600,-0.1536,0.3049,0
39784098,0.6908,-0.5232,-0.3397,-0.3656,0.2466,-0.1718,0.3946,0
39784265,0.6907,-0.5238,-0.3398,-0.3649,0.2772,-0.1217,0.3234,0
39784432,0.6906,-0.5243,-0.3399,-0.3643,0.2300,-0.1726,0.3435,0
39784598,0.6903,-0.5248,-0.3401,-0.3639,-0.0334,-0.3329,0.4558,0
39784765,0.6906,-0.5246,-0.3402,-0.3633,-0.0897,-0.4589,0.4725,0
39784932,0.6908,-0.5248,-0.3403,-0.3627,0.1984,-0.5153,0.2552,0
39785098,0.6909,-0.5254,-0.3399,-0.3621,0.2334,-0.4727,0.2865,0
39785265,0.6907,-0.5264,-0.3392,-0.3616,0.0840,-0.4518,0.3444,0
39785432,0.6906,-0.5275,-0.3384,-0.3610,-0.0779,-0.3415,0.3010,0
39785598,0.4726,0.2427,-0.5781,0.6193,0.2803,0.2397,0.1465,0
39785765,0.4717,0.2423,-0.5786,0.6197,0.3293,0.2476,0.2513,0
39785932,0.4705,0.2420,-0.5789,0.6205,0.1863,0.2941,0.1522,0
39786098,0.4693,0.2418,-0.5794,0.6210,-0.0213,0.4241,0.1424,0
39786265,0.4682,0.2412,-0.5801,0.6214,0.0412,0.3742,0.2348,0
39786432,0.4671,0.2406,-0.5807,0.6219,0.1260,0.3477,0.1587,0
39786598,0.4660,0.2402,-0.5811,0.6225,0.0619,0.3996,0.0563,0
39786765
39786932
39787098
39787265
